Folder: GSAMain/data/SEM_Raman_Test/KZPd_180321-1-20

Note: README.md
<!--[![Build Status](https://travis-ci.com/nanoMFG/GSAMain.svg?token=N4nkhb241rGHotEqsu3q&branch=master)](https://travis-ci.com/nanoMFG/GSAMain) -->

[![Dev Status](https://img.shields.io/endpoint?url=https://salty-headland-67572.herokuapp.com/badges/phase?repo=GSAMain)](https://img.shields.io/endpoint?url=https://salty-headland-67572.herokuapp.com/badges/phase?repo=GSAMain)
### For Developers

#### Software Planning Documents

 * [gresq_SPD_1.1.0.md](https://github.com/nanoMFG/GSAMain/blob/planning_1.1.0/doc/SPD/gresq_SPD_1.1.0.md) \*
 * Draft SPD \*\* <br>


# Graphene-Synthesis-Analysis

<!-- One Paragraph of project description goes here. -->

## Getting Started

The latest production version of this application is hosted **on nanoHUB** for public use:<br/>
[https://nanohub.org/tools/gresq](https://nanohub.org/tools/gresq)

### Installing Locally
These instructions will get you a copy of the project up and running on your local machine for development and testing purposes. See deployment notes (below) for info on how to deploy the project on nanoHUB.

##### Cloning From GitHub:
The code in the repository uses submoded fro mthe GSAImage and GSARaman repos.  Be sure to use `--recurse-submodules` when cloning:
```
$ git clone --recurse-submodules git@github.com:nanoMFG/GSAMain.git
```
If already cloned:
```
$ git submodule init
$ git submodule update
```
See: <br/>
https://git-scm.com/book/en/v2/Git-Tools-Submodules<br/>
for more details on working with submodules.

##### Execute the dashboard GUI
```
$cd src
$python -m gresq
```

### Prerequisites
<!-- 
What things you need to install the software and how to install them -->

#### Using Conda

Install anaconda3 or miniconda3, then:<br/>

```
conda create --name gresq-3.6 python=3.6
conda env create -f <srcdir>/.conda/env_gresq_[osx|linux]_3.6.yml
conda activate env_gresq_[osx|linux]_3.6
```

#### Installing
<!--
A step by step series of examples that tell you have to get a development env running

Say what the step will be

```
Give the example
```

And repeat

```
until finished
```

End with an example of getting some data out of the system or using it for a little demo
-->
From the repository root:<br>
```
pip install ./gsaraman
pip install .
```
or for development:<br/>
```
pip install -e .
```

## Running the tests

<!-- Explain how to run the automated tests for this system -->
Additional prerequisites for testing are:  
```
pytest
factory_boy
```

After installing, run the following from the repository root:
```
pytest -v
```
Note, to avoid broken DB tests:  
```
pytest -v --ignore=test/database/models --ignore=test/util
```

### Break down into end to end tests

<!-- 
Explain what these tests test and why
```
Give an example
```
-->

### And coding style tests
<!-- 
Explain what these tests test and why 
```
Give an example
```
-->

## Deployment

<!-- Add additional notes about how to deploy this on a live system -->

Overview of deployment:
1. Code changes accumulate in development.
2

File: 321-1_1(%Cov).csv
 ,Label,Area,Mean,Min,Max
1,,4177610.947,255,255,255
2,,221.893,255,255,255
3,,351.331,255,255,255
4,,129.438,255,255,255
5,,107.249,255,255,255
6,,114.645,255,255,255
7,,166.420,255,255,255
8,Mean,596957.418,255,255,255
9,SD,1578919.797,0,0,0
10,Min,107.249,255,255,255
11,Max,4177610.947,255,255,255

File: 321-1_2(NucDens).csv
 ,Area,Mean,Min,Max
1,8587.438,255,255,255
2,0.455,255,255,255
3,0.256,255,255,255
4,0.223,255,255,255
5,0.215,255,255,255
6,0.793,255,255,255
7,0.380,255,255,255
8,0.752,255,255,255
9,0.388,255,255,255
10,0.281,255,255,255
11,0.273,255,255,255
12,0.355,255,255,255
13,0.240,255,255,255
14,0.248,255,255,255
15,0.223,255,255,255
16,0.537,255,255,255
17,0.455,255,255,255
18,0.248,255,255,255
19,0.273,255,255,255
20,0.446,255,255,255
21,0.207,255,255,255
22,0.248,255,255,255
23,0.248,255,255,255
24,0.207,255,255,255
25,0.248,255,255,255
26,0.207,255,255,255
27,0.769,255,255,255
28,0.223,255,255,255
29,0.777,255,255,255
30,0.223,255,255,255
31,0.256,255,255,255
32,0.256,255,255,255
33,1.066,255,255,255
34,0.479,255,255,255
35,0.331,255,255,255
36,0.901,255,255,255
37,0.760,255,255,255
38,0.281,255,255,255
39,0.273,255,255,255
40,0.298,255,255,255
41,0.405,255,255,255
42,1.017,255,255,255
43,0.628,255,255,255
44,0.380,255,255,255
45,0.446,255,255,255
46,0.413,255,255,255
47,0.289,255,255,255