Folder: GSAMain/data/SEM_Raman_Test/KZPd_180415-1-20

Note: README.md
<!--[![Build Status](https://travis-ci.com/nanoMFG/GSAMain.svg?token=N4nkhb241rGHotEqsu3q&branch=master)](https://travis-ci.com/nanoMFG/GSAMain) -->

[![Dev Status](https://img.shields.io/endpoint?url=https://salty-headland-67572.herokuapp.com/badges/phase?repo=GSAMain)](https://img.shields.io/endpoint?url=https://salty-headland-67572.herokuapp.com/badges/phase?repo=GSAMain)
### For Developers

#### Software Planning Documents

 * [gresq_SPD_1.1.0.md](https://github.com/nanoMFG/GSAMain/blob/planning_1.1.0/doc/SPD/gresq_SPD_1.1.0.md) \*
 * Draft SPD \*\* <br>


# Graphene-Synthesis-Analysis

<!-- One Paragraph of project description goes here. -->

## Getting Started

The latest production version of this application is hosted **on nanoHUB** for public use:<br/>
[https://nanohub.org/tools/gresq](https://nanohub.org/tools/gresq)

### Installing Locally
These instructions will get you a copy of the project up and running on your local machine for development and testing purposes. See deployment notes (below) for info on how to deploy the project on nanoHUB.

##### Cloning From GitHub:
The code in the repository uses submoded fro mthe GSAImage and GSARaman repos.  Be sure to use `--recurse-submodules` when cloning:
```
$ git clone --recurse-submodules git@github.com:nanoMFG/GSAMain.git
```
If already cloned:
```
$ git submodule init
$ git submodule update
```
See: <br/>
https://git-scm.com/book/en/v2/Git-Tools-Submodules<br/>
for more details on working with submodules.

##### Execute the dashboard GUI
```
$cd src
$python -m gresq
```

### Prerequisites
<!-- 
What things you need to install the software and how to install them -->

#### Using Conda

Install anaconda3 or miniconda3, then:<br/>

```
conda create --name gresq-3.6 python=3.6
conda env create -f <srcdir>/.conda/env_gresq_[osx|linux]_3.6.yml
conda activate env_gresq_[osx|linux]_3.6
```

#### Installing
<!--
A step by step series of examples that tell you have to get a development env running

Say what the step will be

```
Give the example
```

And repeat

```
until finished
```

End with an example of getting some data out of the system or using it for a little demo
-->
From the repository root:<br>
```
pip install ./gsaraman
pip install .
```
or for development:<br/>
```
pip install -e .
```

## Running the tests

<!-- Explain how to run the automated tests for this system -->
Additional prerequisites for testing are:  
```
pytest
factory_boy
```

After installing, run the following from the repository root:
```
pytest -v
```
Note, to avoid broken DB tests:  
```
pytest -v --ignore=test/database/models --ignore=test/util
```

### Break down into end to end tests

<!-- 
Explain what these tests test and why
```
Give an example
```
-->

### And coding style tests
<!-- 
Explain what these tests test and why 
```
Give an example
```
-->

## Deployment

<!-- Add additional notes about how to deploy this on a live system -->

Overview of deployment:
1. Code changes accumulate in development.
2

File: 415-1_1(NucDens).csv
 ,Area,Mean,Min,Max
1,29905.202,118.662,58,150
2,6.659,138.821,105,150
3,4.400,139.182,111,150
4,9.334,139.315,109,150
5,4.310,137.986,113,150
6,2.229,142.027,118,150
7,3.954,139.368,114,150
8,11.623,137.803,95,150
9,6.332,138.732,104,150
10,3.508,138.644,102,150
11,2.170,140.151,111,150
12,2.259,138.632,119,150
13,11.326,128.963,82,150

File: 415-1_2(%Cov).csv
 ,Label,Area,Mean,Min,Max
1,,8524922.179,255,255,255
3,,17159.533,255,255,255
5,,136.187,255,255,255
7,,107.004,255,255,255
9,,223.735,255,255,255
11,,330.739,255,255,255
13,,145.914,255,255,255
15,,272.374,255,255,255
17,,107.004,255,255,255
19,,126.459,255,255,255
21,,204.280,255,255,255
23,,749.027,255,255,255
25,,165.370,255,255,255
27,,107.004,255,255,255
29,,544.747,255,255,255
31,,214.008,255,255,255
33,,1186.770,255,255,255
35,,729.572,255,255,255
37,,175.097,255,255,255
39,,262.646,255,255,255
41,,107.004,255,255,255
43,,184.825,255,255,255
45,,184.825,255,255,255
47,,1352.140,255,255,255
49,,486.381,255,255,255
51,,107.004,255,255,255
53,,214.008,255,255,255
55,,136.187,255,255,255
57,,165.370,255,255,255
59,,194.553,255,255,255
61,,116.732,255,255,255
63,,116.732,255,255,255
65,,107.004,255,255,255
67,,204.280,255,255,255
69,,126.459,255,255,255
71,,486.381,255,255,255
73,,116.732,255,255,255
75,,116.732,255,255,255
77,,505.837,255,255,255
79,,15389.105,255,255,255
81,,107.004,255,255,255
83,,126.459,255,255,255
85,,21605.058,255,255,255
87,,398.833,255,255,255
89,,136.187,255,255,255
91,,330.739,255,255,255
93,,107.004,255,255,255
95,,612.840,255,255,255
97,,1167.315,255,255,255
99,,155.642,255,255,255
101,,1011.673,255,255,255
103,,1108.949,255,255,255
105,,690.661,255,255,255
107,,262.646,255,255,255
109,,457.198,255,255,255
111,,282.101,255,255,255
113,,165.370,255,255,255
115,,165.370,255,255,255
117,,136.187,255,255,255
119,,155.642,255,255,255
121,,749.027,255,255,255
123,,486.381,255,255,255
125,,175.097,255,255,255
127,,107.004,255,255,255
129,,466.926,255,255,255
131,,194.553,255,255,255
133,,145.914,255,255,255
135,,243.191,255,255,255
137,,116.732,255,255,255
139,,515.564,255,255,255
141,,457.198,255,255,255
143,,136.187,255,255,255
145,,252.918,255,255,255
147,,554.475,255,255,255
149,,155.642,255,255,255
151,,126.459,255,255,255
153,,214.008,255,255,255
155,,145.914,255,255,255
157,,126.459,255,255,255
159,,136.187,255,255,255
161,,291.829,255,255,255
163,,107.004,255,255,255
165,,116.732,255,255,255
167,,2402.724,255,255,255
169,,486.381,255,255,255
171,,214.008,255,255,255
173,,175.097,255,255,255
175,,875.486,255,255,255
177,,165.370,255,255,255
179,,126.459,255,255,255
181,,116.732,255,255,255
183,,865.759,255,255,255
185,,291.829,255,255,255
187,,136.187,255,255,255
189,,136.187,255,255,255
191,,223.735,255,255,255
193,,136.187,255,255,255
195,,107.004,255,255,255
197,,107.004,255,255,255
199,,165.370,255,255,255
201,,233.463,255,255,255
203,,282.101,255,255,255
205,,116.732,255,255,255
207,,739.300,255,255,255
209,,262.646,255,255,255
211,,107.004,255,255,255
213,,1293.774,255,255,255
215,,1284.047,255,255,255
217,,408.560,255,255,255
219,,301.556,255,255,255
221,,428.016,255,255,255
223,,214.008,255,255,255
225,,126.459,255,255,255
227,,116.732,255,255,255
229,,165.370,255,255,255
231,,145.914,255,255,255
233,,6575.875,255,255,255
235,,126.459,255,255,255
237,,136.187,255,255,255
239,,233.463,255,255,255
241,,126.459,255,255,255
243,,107.004,255,255,255
245,,107.004,255,255,255
247,,437.743,255,255,255
249,,262.646,255,255,255
251,,282.101,255,255,255
253,,145.914,255,255,255
255,,291.829,255,255,255
257,,116.732,255,255,255
259,,126.459,255,255,255
261,,175.097,255,255,255
263,,729.572,255,255,255
265,,175.097,255,255,255
267,,282.101,255,255,255
269,,1147.860,255,255,255
271,,700.389,255,255,255
273,,1517.510,255,255,255
275,,184.825,255,255,255
277,,155.642,255,255,255
279,,505.837,255,255,255
281,,165.370,255,255,255
283,,107.004,255,255,255
285,,155.642,255,255,255
287,,603.113,255,255,255
289,,272.374,255,255,255
291,,145.914,255,255,255
293,,175.097,255,255,255
295,,4727.626,255,255,255
297,,165.370,255,255,255
299,,3696.498,255,255,255
301,,136.187,255,255,255
303,,116.732,255,255,255
305,,155.642,255,255,255
307,,126.459,255,255,255
309,,175.097,255,255,255
311,,126.459,255,255,255
313,,107.004,255,255,255
315,,145.914,255,255,255
317,,116.732,255,255,255
319,,184.825,255,255,255
321,,3939.689,255,255,255
323,,126.459,255,255,255
325,,389.105,255,255,255
327,,107.004,255,255,255
329,,155.642,255,255,255
331,,136.187,255,255,255
333,,116.732,255,255,255
335,,321.012,255,255,255
337,,107.004,255,255,255
339,,126.459,255,255,255
341,,116.732,255,255,255
343,,398.833,255,255,255
345,,184.825,255,255,255
347,,583.658,255,255,255
349,,116.732,255,255,255
351,Mean,24949.861,255,255,255
353,Min,107.004,255,255,255
354,Max,8524922.179,255,255,255