Folder: GSAMain/data/SEM_Raman_Data/KZPd_180416-2

Note: README.md
<!--[![Build Status](https://travis-ci.com/nanoMFG/GSAMain.svg?token=N4nkhb241rGHotEqsu3q&branch=master)](https://travis-ci.com/nanoMFG/GSAMain) -->

[![Dev Status](https://img.shields.io/endpoint?url=https://salty-headland-67572.herokuapp.com/badges/phase?repo=GSAMain)](https://img.shields.io/endpoint?url=https://salty-headland-67572.herokuapp.com/badges/phase?repo=GSAMain)
### For Developers

#### Software Planning Documents

 * [gresq_SPD_1.1.0.md](https://github.com/nanoMFG/GSAMain/blob/planning_1.1.0/doc/SPD/gresq_SPD_1.1.0.md) \*
 * Draft SPD \*\* <br>


# Graphene-Synthesis-Analysis

<!-- One Paragraph of project description goes here. -->

## Getting Started

The latest production version of this application is hosted **on nanoHUB** for public use:<br/>
[https://nanohub.org/tools/gresq](https://nanohub.org/tools/gresq)

### Installing Locally
These instructions will get you a copy of the project up and running on your local machine for development and testing purposes. See deployment notes (below) for info on how to deploy the project on nanoHUB.

##### Cloning From GitHub:
The code in the repository uses submoded fro mthe GSAImage and GSARaman repos.  Be sure to use `--recurse-submodules` when cloning:
```
$ git clone --recurse-submodules git@github.com:nanoMFG/GSAMain.git
```
If already cloned:
```
$ git submodule init
$ git submodule update
```
See: <br/>
https://git-scm.com/book/en/v2/Git-Tools-Submodules<br/>
for more details on working with submodules.

##### Execute the dashboard GUI
```
$cd src
$python -m gresq
```

### Prerequisites
<!-- 
What things you need to install the software and how to install them -->

#### Using Conda

Install anaconda3 or miniconda3, then:<br/>

```
conda create --name gresq-3.6 python=3.6
conda env create -f <srcdir>/.conda/env_gresq_[osx|linux]_3.6.yml
conda activate env_gresq_[osx|linux]_3.6
```

#### Installing
<!--
A step by step series of examples that tell you have to get a development env running

Say what the step will be

```
Give the example
```

And repeat

```
until finished
```

End with an example of getting some data out of the system or using it for a little demo
-->
From the repository root:<br>
```
pip install ./gsaraman
pip install .
```
or for development:<br/>
```
pip install -e .
```

## Running the tests

<!-- Explain how to run the automated tests for this system -->
Additional prerequisites for testing are:  
```
pytest
factory_boy
```

After installing, run the following from the repository root:
```
pytest -v
```
Note, to avoid broken DB tests:  
```
pytest -v --ignore=test/database/models --ignore=test/util
```

### Break down into end to end tests

<!-- 
Explain what these tests test and why
```
Give an example
```
-->

### And coding style tests
<!-- 
Explain what these tests test and why 
```
Give an example
```
-->

## Deployment

<!-- Add additional notes about how to deploy this on a live system -->

Overview of deployment:
1. Code changes accumulate in development.
2

File: 416-2_1(%Cov).csv
 ,Label,Area,Mean,Min,Max
1,,1106349.000,255,255,255
2,,106.000,255,255,255
3,,1302.000,255,255,255
4,,134.000,255,255,255
5,,109.000,255,255,255
6,,105.000,255,255,255
7,,108.000,255,255,255
8,,139.000,255,255,255
9,,125.000,255,255,255
10,,301.000,255,255,255
11,,397.000,255,255,255
12,Mean,100834.091,255,255,255
13,SD,333491.754,0,0,0
14,Min,105.000,255,255,255
15,Max,1106349.000,255,255,255

File: SAMPLE.txt
672.793	2908
686.818	2736
700.825	2465
714.807	2304
728.768	2203
742.707	2122
756.623	2223
770.519	2115
784.394	2165
798.246	2125
812.076	2279
825.885	2164
839.673	2058
853.44	2002
867.186	2028
880.909	2012
894.612	2025
908.293	2025
921.953	2244
935.592	4257
949.21	5553
962.805	5611
976.3822	5614
989.936	4308
1003.47	2504
1016.98	1934
1030.48	1615
1043.95	1395
1057.4	1275
1070.83	1269
1084.24	1216
1097.63	1176
1111	1201
1124.35	1196
1137.67	1175
1150.98	1136
1164.27	1166
1177.54	1092
1190.78	1112
1204.01	1073
1217.22	1053
1230.4	1041
1243.57	1042
1256.71	1041
1269.84	1025
1282.95	982
1296.03	979
1309.1	1004
1322.15	1038
1335.18	1175
1348.18	1278
1361.17	1118
1374.14	1019
1387.09	982
1400.02	999
1412.93	896
1425.82	878
1438.69	899
1451.54	890
1464.37	857
1477.19	899
1489.98	826
1502.75	821
1515.51	838
1528.25	852
1540.96	886
1553.66	930
1566.34	1246
1579	2655
1591.64	5958
1604.27	1773
1616.871	1073
1629.46	913
1642.02	840
1654.57	775
1667.1	687
1679.61	717
1692.1	677
1704.58	662
1717.03	648
1729.47	685
1741.89	713
1754.29	650
1766.67	650
1779.03	707
1791.379	682
1803.7	647
1816.01	662
1828.31	664
1840.58	631
1852.83	642
1865.07	667
1877.29	657
1889.49	609
1901.67	639
1913.84	632
1925.98	604
1938.11	591
1950.23	557
1962.32	588
1974.4	592
1986.46	604
1998.498	597
2010.52	576
2022.528	579
2034.52	551
2046.49	560
2058.44	524
2070.38	517
2082.3	493
2094.2	560
2106.09	543
2117.95	523
2129.804	516
2141.64	516
2153.46	519
2165.25	503
2177.04	484
2188.8	492
2200.551	479
2212.28	497
2224	483
2235.69	497
2247.38	479
2259.04	529
2270.69	510
2282.32	486
2293.93	491
2305.53	474
2317.11	456
2328.676	459
2340.23	460
2351.76	484
2363.27	481
2374.77	486
2386.25	463
2397.72	506
2409.17	524
2420.6	509
2432.02	544
2443.42	590
2454.8	842
2466.17	890
2477.53	765
2488.86	680
2500.18	641
2511.49	571
2522.78	584
2534.05	529
2545.3	522
2556.54	531
2567.77	534
2578.978	538
2590.17	548
2601.35	602
2612.51	660
2623.658	776
2634.79	1002
2645.9	1533
2657	2887
2668.09	5699
2679.15	9958
2690.21	10453
2701.24	6707
2712.27	3407
2723.27	1930
2734.26	1235
2745.24	892
2756.2	708
2767.15	662
2778.08	581
2788.991	509
2799.89	506
2810.77	496
2821.65	450
2832.5	478
2843.34	459
2854.16	439
2864.97	463
2875.77	407
2886.55	413
2897.311	450
2908.061	392
2918.8	417
2929.52	446
2940.22	426
2950.91	397
2961.59	393
2972.25	394
2982.9	372
2993.53	363
3004.14	380
3014.75	355
3025.34	362
3035.91	341
3046.47	361
3057.01	377
3067.55	340
3078.06	342
3088.563	379
3099.05	331
3109.52	351
3119.98	344
3130.427	356
3140.86	356
3151.27	363
3161.67	349
3172.06	349
3182.437	329
3192.8	330
3203.14	339
3213.47	324
3223.791	374
3234.1	463
3244.38	684
3254.66	884
3264.92	661
3275.17	412
3285.41	340
3295.63	336
3305.83	278
3316.03	324
3326.21	309
3336.37	318
3346.52	305
3356.66	305
3366.79	306
3376.9	305
3386.99	268
3397.08	336
3407.15	308
3417.21	291
3427.25	291
3437.28	290
3447.3	299
3457.3	287
3467.29	291
3477.27	261
3487.23	274
3497.18	293
3507.12	297
3517.04	278
3526.95	258
3536.85	270
3546.73	280
3556.61	277
3566.46	284
3576.31	301
3586.14	274
3595.96	276
3605.77	266
3615.56	270
3625.34	260
3635.11	256
3644.86	264
3654.6	245
3661.9	255