Folder: GSAMain/data/SEM_Raman_Data/KZPd_170928-5

Note: README.md
<!--[![Build Status](https://travis-ci.com/nanoMFG/GSAMain.svg?token=N4nkhb241rGHotEqsu3q&branch=master)](https://travis-ci.com/nanoMFG/GSAMain) -->

[![Dev Status](https://img.shields.io/endpoint?url=https://salty-headland-67572.herokuapp.com/badges/phase?repo=GSAMain)](https://img.shields.io/endpoint?url=https://salty-headland-67572.herokuapp.com/badges/phase?repo=GSAMain)
### For Developers

#### Software Planning Documents

 * [gresq_SPD_1.1.0.md](https://github.com/nanoMFG/GSAMain/blob/planning_1.1.0/doc/SPD/gresq_SPD_1.1.0.md) \*
 * Draft SPD \*\* <br>


# Graphene-Synthesis-Analysis

<!-- One Paragraph of project description goes here. -->

## Getting Started

The latest production version of this application is hosted **on nanoHUB** for public use:<br/>
[https://nanohub.org/tools/gresq](https://nanohub.org/tools/gresq)

### Installing Locally
These instructions will get you a copy of the project up and running on your local machine for development and testing purposes. See deployment notes (below) for info on how to deploy the project on nanoHUB.

##### Cloning From GitHub:
The code in the repository uses submoded fro mthe GSAImage and GSARaman repos.  Be sure to use `--recurse-submodules` when cloning:
```
$ git clone --recurse-submodules git@github.com:nanoMFG/GSAMain.git
```
If already cloned:
```
$ git submodule init
$ git submodule update
```
See: <br/>
https://git-scm.com/book/en/v2/Git-Tools-Submodules<br/>
for more details on working with submodules.

##### Execute the dashboard GUI
```
$cd src
$python -m gresq
```

### Prerequisites
<!-- 
What things you need to install the software and how to install them -->

#### Using Conda

Install anaconda3 or miniconda3, then:<br/>

```
conda create --name gresq-3.6 python=3.6
conda env create -f <srcdir>/.conda/env_gresq_[osx|linux]_3.6.yml
conda activate env_gresq_[osx|linux]_3.6
```

#### Installing
<!--
A step by step series of examples that tell you have to get a development env running

Say what the step will be

```
Give the example
```

And repeat

```
until finished
```

End with an example of getting some data out of the system or using it for a little demo
-->
From the repository root:<br>
```
pip install ./gsaraman
pip install .
```
or for development:<br/>
```
pip install -e .
```

## Running the tests

<!-- Explain how to run the automated tests for this system -->
Additional prerequisites for testing are:  
```
pytest
factory_boy
```

After installing, run the following from the repository root:
```
pytest -v
```
Note, to avoid broken DB tests:  
```
pytest -v --ignore=test/database/models --ignore=test/util
```

### Break down into end to end tests

<!-- 
Explain what these tests test and why
```
Give an example
```
-->

### And coding style tests
<!-- 
Explain what these tests test and why 
```
Give an example
```
-->

## Deployment

<!-- Add additional notes about how to deploy this on a live system -->

Overview of deployment:
1. Code changes accumulate in development.
2

File: 20170926-5 on SiO2_21.txt
672.793	1272.67
686.818	721.242
700.825	257.622
714.807	189.284
728.768	86.74646
742.707	45.4774
756.623	183.907
770.519	274.497
784.394	543.634
798.246	631.687
812.076	830.038
825.885	929.035
839.673	834.006
853.44	788.264
867.186	835.105
880.909	909.798
894.612	917.632
908.293	1190.83
921.953	1674.65
935.592	5526.31
949.21	9560.03
962.805	9505.98
976.3822	9900.39
989.936	7916.4
1003.47	3189.2
1016.98	1818.93
1030.48	733.743
1043.95	252.776
1057.4	140.157
1070.83	0.000463554
1084.24	16.4295
1097.63	48.5364
1111	240.424
1124.35	295.184
1137.67	312.897
1150.98	313.643
1164.27	316.4877
1177.54	184.5071
1190.78	269.752
1204.01	214.283
1217.22	257.152
1230.4	305.405
1243.57	397.084
1256.71	433.224
1269.84	684.8692
1282.95	846.041
1296.03	1062.77
1309.1	1807.09
1322.15	3573.01
1335.18	10341.563
1348.18	16922.754
1361.17	8488.61
1374.14	3481.13
1387.09	1832.33
1400.02	1297.22
1412.93	953.81
1425.82	771.104
1438.69	719.102
1451.54	648.811
1464.37	662.235
1477.19	599.3689
1489.98	718.215
1502.75	735.77
1515.51	749.037
1528.25	846.009
1540.96	946.687
1553.66	1198.06
1566.34	1755.13
1579	3861.9
1591.64	6708.35
1604.27	3714.48
1616.871	2825.29
1629.46	3901.77
1642.02	1272.91
1654.57	641.72
1667.1	342.185
1679.61	208.302
1692.1	83.0636
1704.58	40.4668
1717.03	52.508
1729.47	14.1828
1741.89	77.4871
1754.29	-0.582738
1766.67	42.9674
1779.03	105.137
1791.379	65.9259
1803.7	94.3247
1816.01	110.338
1828.31	146.963
1840.58	140.195
1852.83	138.039
1865.07	99.4894
1877.29	110.549
1889.49	124.218
1901.67	154.496
1913.84	125.3872
1925.98	114.891
1938.11	128.01
1950.23	94.7486
1962.32	139.109
1974.4	69.09436
1986.46	132.7076
1998.498	110.956
2010.52	96.8411
2022.528	153.37
2034.52	62.547
2046.49	46.37904
2058.44	84.8706
2070.38	84.0296
2082.3	113.864
2094.2	106.3771
2106.09	62.5801
2117.95	137.48
2129.804	83.0824
2141.64	31.3988
2153.46	81.43544
2165.25	25.2017
2177.04	28.7067
2188.8	57.9585
2200.551	50.9682
2212.28	8.743639
2224	115.295
2235.69	98.6321
2247.38	92.7645
2259.04	82.7018
2270.69	71.455
2282.32	63.0331
2293.93	75.4465
2305.53	80.7056
2317.11	69.8204
2328.676	50.8005
2340.23	114.657
2351.76	11.3991
2363.27	147.037
2374.77	30.5809
2386.25	116.041
2397.72	173.427
2409.17	198.747
2420.6	150.013
2432.02	188.233
2443.42	318.417
2454.8	441.573
2466.17	528.711
2477.53	412.84
2488.86	305.968
2500.18	284.103
2511.49	287.254
2522.78	239.4283
2534.05	233.634
2545.3	230.878
2556.54	311.169
2567.77	320.512
2578.978	380.9151
2590.17	492.384
2601.35	543.925
2612.51	708.543
2623.658	977.245
2634.79	1348.04
2645.9	2236.92
2657	3728.9
2668.09	6571.98
2679.15	9104.17
2690.21	8933.47
2701.24	6199.88
2712.27	3573.41
2723.27	2019.06
2734.26	1202.82
2745.24	804.71
2756.2	550.722
2767.15	436.859
2778.08	370.121
2788.991	334.51
2799.89	295.025
2810.77	250.666
2821.65	315.433
2832.5	322.325
2843.34	333.34
2854.16	290.478
2864.97	318.735
2875.77	322.111
2886.55	397.602
2897.311	412.206
2908.061	590.9201
2918.8	716.74
2929.52	848.663
2940.22	945.684
2950.91	930.799
2961.59	717.005
2972.25	444.296
2982.9	340.666
2993.53	190.1111
3004.14	178.626
3014.75	115.205
3025.34	124.842
3035.91	65.5296
3046.47	130.264
3057.01	42.0368
3067.55	74.8422
3078.06	54.6722
3088.563	30.5225
3099.05	62.3837
3109.52	51.2497
3119.98	34.1135
3130.427	111.968
3140.86	38.804
3151.27	83.6162
3161.67	77.3966
3172.06	72.1379
3182.437	120.8328
3192.8	104.473
3203.14	79.05191
3213.47	117.5623
3223.791	166.997
3234.1	235.349
3244.38	485.61
3254.66	653.7749
3264.92	340.836
3275.17	152.787
3285.41	106.6224
3295.63	48.334
3305.83	49.9173
3316.03	61.3665
3326.21	23.6763
3336.37	6.84068
3346.52	43.8565
3356.66	24.7178
3366.79	17.421
3376.9	52.96207
3386.99	29.3387
3397.08	28.5468
3407.15	62.5846
3417.21	17.4501
3427.25	51.1417
3437.28	55.6581
3447.3	63.99921
3457.3	38.1652
3467.29	47.1568
3477.27	-0.0250778
3487.23	36.6223
3497.18	61.1008
3507.12	54.4141
3517.04	14.566
3526.95	62.5616
3536.85	18.406
3546.73	-0.89422
3556.61	34.66795
3566.46	58.1004
3576.31	48.4118
3586.14	12.612
3595.96	10.7115
3605.77	42.7219
3615.56	54.6555
3625.34	81.526
3635.11	11.3476
3644.86	15.1358
3654.6	31.9075
3661.9	22.4858