Folder: GSAMain/data/SEM_Raman_Data/KZPd_180109-1

Note: README.md
<!--[![Build Status](https://travis-ci.com/nanoMFG/GSAMain.svg?token=N4nkhb241rGHotEqsu3q&branch=master)](https://travis-ci.com/nanoMFG/GSAMain) -->

[![Dev Status](https://img.shields.io/endpoint?url=https://salty-headland-67572.herokuapp.com/badges/phase?repo=GSAMain)](https://img.shields.io/endpoint?url=https://salty-headland-67572.herokuapp.com/badges/phase?repo=GSAMain)
### For Developers

#### Software Planning Documents

 * [gresq_SPD_1.1.0.md](https://github.com/nanoMFG/GSAMain/blob/planning_1.1.0/doc/SPD/gresq_SPD_1.1.0.md) \*
 * Draft SPD \*\* <br>


# Graphene-Synthesis-Analysis

<!-- One Paragraph of project description goes here. -->

## Getting Started

The latest production version of this application is hosted **on nanoHUB** for public use:<br/>
[https://nanohub.org/tools/gresq](https://nanohub.org/tools/gresq)

### Installing Locally
These instructions will get you a copy of the project up and running on your local machine for development and testing purposes. See deployment notes (below) for info on how to deploy the project on nanoHUB.

##### Cloning From GitHub:
The code in the repository uses submoded fro mthe GSAImage and GSARaman repos.  Be sure to use `--recurse-submodules` when cloning:
```
$ git clone --recurse-submodules git@github.com:nanoMFG/GSAMain.git
```
If already cloned:
```
$ git submodule init
$ git submodule update
```
See: <br/>
https://git-scm.com/book/en/v2/Git-Tools-Submodules<br/>
for more details on working with submodules.

##### Execute the dashboard GUI
```
$cd src
$python -m gresq
```

### Prerequisites
<!-- 
What things you need to install the software and how to install them -->

#### Using Conda

Install anaconda3 or miniconda3, then:<br/>

```
conda create --name gresq-3.6 python=3.6
conda env create -f <srcdir>/.conda/env_gresq_[osx|linux]_3.6.yml
conda activate env_gresq_[osx|linux]_3.6
```

#### Installing
<!--
A step by step series of examples that tell you have to get a development env running

Say what the step will be

```
Give the example
```

And repeat

```
until finished
```

End with an example of getting some data out of the system or using it for a little demo
-->
From the repository root:<br>
```
pip install ./gsaraman
pip install .
```
or for development:<br/>
```
pip install -e .
```

## Running the tests

<!-- Explain how to run the automated tests for this system -->
Additional prerequisites for testing are:  
```
pytest
factory_boy
```

After installing, run the following from the repository root:
```
pytest -v
```
Note, to avoid broken DB tests:  
```
pytest -v --ignore=test/database/models --ignore=test/util
```

### Break down into end to end tests

<!-- 
Explain what these tests test and why
```
Give an example
```
-->

### And coding style tests
<!-- 
Explain what these tests test and why 
```
Give an example
```
-->

## Deployment

<!-- Add additional notes about how to deploy this on a live system -->

Overview of deployment:
1. Code changes accumulate in development.
2

File: Sample_20180109-1.txt
672.793	7.15624
686.818	5.624083
700.825	5.30357
714.807	6.94629
728.768	4.80411
742.707	3.0037
756.623	6.29658
770.519	5.80948
784.394	4.1688
798.246	7.125865
812.076	5.43213
825.885	6.0889
839.673	7.59743
853.44	7.9589
867.186	14.5495
880.909	7.12017
894.612	8.92218
908.293	12.5814
921.953	16.0987
935.592	41.9752
949.21	54.5867
962.805	55.1839
976.3822	57.7678
989.936	40.089
1003.47	16.5234
1016.98	8.9464
1030.48	4.35885
1043.95	5.13632
1057.4	2.4044
1070.83	0.0386214
1084.24	3.28957
1097.63	0.532678
1111	1.14345
1124.35	1.62235
1137.67	1.59478
1150.98	2.31115
1164.27	5.3968
1177.54	3.72715
1190.78	3.80248
1204.01	3.37312
1217.22	0.439373
1230.4	4.75152
1243.57	2.5598
1256.71	0.8644563
1269.84	4.16575
1282.95	5.33884
1296.03	3.38396
1309.1	6.05128
1322.15	9.46598
1335.18	18.2532
1348.18	29.5381
1361.17	14.6958
1374.14	11.2264
1387.09	4.13009
1400.02	4.7819
1412.93	1.43194
1425.82	4.20531
1438.69	3.22705
1451.54	2.49726
1464.37	5.26602
1477.19	4.65833
1489.98	4.04927
1502.75	5.43886
1515.51	5.45218
1528.25	8.0892
1540.96	12.85
1553.66	19.10956
1566.34	53.7429
1579	173.375
1591.64	110.006
1604.27	28.2608
1616.871	14.0144
1629.46	9.01679
1642.02	4.518
1654.57	4.14302
1667.1	3.76684
1679.61	4.38944
1692.1	2.3858
1704.58	4.13092
1717.03	2.62478
1729.47	2.61737
1741.89	1.73367
1754.29	2.97366
1766.67	4.21231
1779.03	3.69961
1791.379	1.68556
1803.7	3.170099
1816.01	2.153244
1828.31	3.88496
1840.58	4.990221
1852.83	2.71903
1865.07	5.32134
1877.29	5.42215
1889.49	2.77143
1901.67	5.24417
1913.84	4.46536
1925.98	1.80997
1938.11	4.278
1950.23	4.61942
1962.32	3.33423
1974.4	3.79742
1986.46	7.88396
1998.498	2.84387
2010.52	4.55211
2022.528	4.13368
2034.52	4.213593
2046.49	3.54183
2058.44	4.49338
2070.38	2.443249
2082.3	3.516449
2094.2	2.33795
2106.09	2.032779
2117.95	3.10093
2129.804	2.54241
2141.64	2.232224
2153.46	3.92037
2165.25	2.85687
2177.04	2.54172
2188.8	4.22494
2200.551	0.0315438
2212.28	1.21154
2224	4.764935
2235.69	7.06676
2247.38	3.99203
2259.04	3.91575
2270.69	5.21295
2282.32	2.13365
2293.93	3.927871
2305.53	5.47064
2317.11	3.38697
2328.676	3.92689
2340.23	4.34044
2351.76	2.62762
2363.27	2.413482
2374.77	3.94804
2386.25	3.85633
2397.72	1.88839
2409.17	2.79423
2420.6	5.57389
2432.02	8.10242
2443.42	14.2548
2454.8	21.9062
2466.17	19.6815
2477.53	11.5807
2488.86	9.72906
2500.18	8.50143
2511.49	8.2729
2522.78	7.54351
2534.05	7.31329
2545.3	6.33228
2556.54	5.35052
2567.77	5.36804
2578.978	8.00987
2590.17	10.2761
2601.35	8.541666
2612.51	10.4317
2623.658	13.69619
2634.79	20.8352
2645.9	31.9737
2657	58.1119
2668.09	134
2679.15	264.012
2690.21	395.399
2701.24	403.286
2712.27	223.548
2723.27	97.3089
2734.26	43.5701
2745.24	25.9562
2756.2	16.2172
2767.15	11.8531
2778.08	10.739
2788.991	8.99984
2799.89	7.51073
2810.77	6.39668
2821.65	6.2827
2832.5	5.41884
2843.34	6.05512
2854.16	5.56656
2864.97	6.57818
2875.77	5.71503
2886.55	5.6021
2897.311	6.61444
2908.061	4.25205
2918.8	5.38996
2929.52	5.903194
2940.22	4.54176
2950.91	4.80567
2961.59	5.06995
2972.25	2.95961
2982.9	6.59965
2993.53	2.9901
3004.14	1.88096
3014.75	4.64724
3025.34	2.03894
3035.91	2.05607
3046.47	1.94864
3057.01	3.46664
3067.55	1.36008
3078.06	4.37895
3088.563	1.27325
3099.05	1.16798
3109.52	3.81313
3119.98	3.2087
3130.427	2.47967
3140.86	2.25103
3151.27	3.272768
3161.67	3.04488
3172.06	3.192333
3182.437	1.21512
3192.8	2.61322
3203.14	3.63661
3213.47	3.785269
3223.791	6.30917
3234.1	12.0833
3244.38	22.1076
3254.66	13.757
3264.92	6.40661
3275.17	4.55628
3285.41	1.706
3295.63	2.98073
3305.83	1.88043
3316.03	0.53007
3326.21	2.054595
3336.37	2.20396
3346.52	1.72812
3356.66	1.62703
3366.79	2.90063
3376.9	1.54887
3386.99	1.94669
3397.08	2.46904
3407.15	1.49086
3417.21	1.13709
3427.25	3.28267
3437.28	3.17752
3447.3	3.32158
3457.3	2.58979
3467.29	2.23208
3477.27	0.998364
3487.23	1.76358
3497.18	2.52764
3507.12	0.665479
3517.04	1.55201
3526.95	0.437149
3536.85	2.32082
3546.73	0.702928
3556.61	0.708394
3566.46	2.46213
3576.31	1.33903
3586.14	0.714021
3595.96	2.087
3605.77	1.33287
3615.56	0.826527
3625.34	-0.05711855
3635.11	1.80683
3644.86	1.04327
3654.6	1.77709
3661.9	0.513171