Folder: GSAMain/data/SEM_Raman_Data/KZPd_170821-2

Note: README.md
<!--[![Build Status](https://travis-ci.com/nanoMFG/GSAMain.svg?token=N4nkhb241rGHotEqsu3q&branch=master)](https://travis-ci.com/nanoMFG/GSAMain) -->

[![Dev Status](https://img.shields.io/endpoint?url=https://salty-headland-67572.herokuapp.com/badges/phase?repo=GSAMain)](https://img.shields.io/endpoint?url=https://salty-headland-67572.herokuapp.com/badges/phase?repo=GSAMain)
### For Developers

#### Software Planning Documents

 * [gresq_SPD_1.1.0.md](https://github.com/nanoMFG/GSAMain/blob/planning_1.1.0/doc/SPD/gresq_SPD_1.1.0.md) \*
 * Draft SPD \*\* <br>


# Graphene-Synthesis-Analysis

<!-- One Paragraph of project description goes here. -->

## Getting Started

The latest production version of this application is hosted **on nanoHUB** for public use:<br/>
[https://nanohub.org/tools/gresq](https://nanohub.org/tools/gresq)

### Installing Locally
These instructions will get you a copy of the project up and running on your local machine for development and testing purposes. See deployment notes (below) for info on how to deploy the project on nanoHUB.

##### Cloning From GitHub:
The code in the repository uses submoded fro mthe GSAImage and GSARaman repos.  Be sure to use `--recurse-submodules` when cloning:
```
$ git clone --recurse-submodules git@github.com:nanoMFG/GSAMain.git
```
If already cloned:
```
$ git submodule init
$ git submodule update
```
See: <br/>
https://git-scm.com/book/en/v2/Git-Tools-Submodules<br/>
for more details on working with submodules.

##### Execute the dashboard GUI
```
$cd src
$python -m gresq
```

### Prerequisites
<!-- 
What things you need to install the software and how to install them -->

#### Using Conda

Install anaconda3 or miniconda3, then:<br/>

```
conda create --name gresq-3.6 python=3.6
conda env create -f <srcdir>/.conda/env_gresq_[osx|linux]_3.6.yml
conda activate env_gresq_[osx|linux]_3.6
```

#### Installing
<!--
A step by step series of examples that tell you have to get a development env running

Say what the step will be

```
Give the example
```

And repeat

```
until finished
```

End with an example of getting some data out of the system or using it for a little demo
-->
From the repository root:<br>
```
pip install ./gsaraman
pip install .
```
or for development:<br/>
```
pip install -e .
```

## Running the tests

<!-- Explain how to run the automated tests for this system -->
Additional prerequisites for testing are:  
```
pytest
factory_boy
```

After installing, run the following from the repository root:
```
pytest -v
```
Note, to avoid broken DB tests:  
```
pytest -v --ignore=test/database/models --ignore=test/util
```

### Break down into end to end tests

<!-- 
Explain what these tests test and why
```
Give an example
```
-->

### And coding style tests
<!-- 
Explain what these tests test and why 
```
Give an example
```
-->

## Deployment

<!-- Add additional notes about how to deploy this on a live system -->

Overview of deployment:
1. Code changes accumulate in development.
2

File: Sample spectrum KZPd_170821-2.txt
672.793	8.22262
686.818	3.19785
700.825	3.58291
714.807	1.13312
728.768	0.728972
742.707	1.75053
756.623	5.70254
770.519	7.4648
784.394	7.66657
798.246	9.43693
812.076	15.4049
825.885	14.9492
839.673	14.9484
853.44	12.0308
867.186	14.4497
880.909	18.7079
894.612	17.1834
908.293	18.0038
921.953	25.2966
935.592	108.064
949.21	127.059
962.805	128.783
976.3822	136.863
989.936	85.4257
1003.47	42.4734
1016.98	24.38237
1030.48	13.0292
1043.95	5.54039
1057.4	2.16713
1070.83	2.91068
1084.24	2.77218
1097.63	1.00268
1111	0.228153
1124.35	2.1995
1137.67	1.292528
1150.98	0.383007
1164.27	1.47163
1177.54	0.8090046
1190.78	1.895722
1204.01	0.607288
1217.22	1.44417
1230.4	1.53177
1243.57	0.745464
1256.71	0.83558
1269.84	1.17739
1282.95	0.146149
1296.03	1.742059
1309.1	0.9652952
1322.15	0.941001
1335.18	2.66929
1348.18	2.65025
1361.17	1.13394
1374.14	3.3704
1387.09	2.48464
1400.02	0.60166
1412.93	0.0964382
1425.82	0.843933
1438.69	1.34409
1451.54	1.47184
1464.37	2.227103
1477.19	1.23478
1489.98	2.49478
1502.75	3.00698
1515.51	3.02127
1528.25	2.03752
1540.96	4.5556
1553.66	7.450366
1566.34	25.7217
1579	96.2444
1591.64	59.8934
1604.27	14.1685
1616.871	6.19456
1629.46	5.09644
1642.02	1.62399
1654.57	1.27707
1667.1	0.930521
1679.61	0.959208
1692.1	1.48798
1704.58	1.51672
1717.03	0.170268
1729.47	0.0735102
1741.89	0.851315
1754.29	-0.996439
1766.67	-0.344875
1779.03	0.180899
1791.379	0.955777
1803.7	1.604646
1816.01	1.62742
1828.31	1.149
1840.58	1.5443
1852.83	3.56325
1865.07	5.08076
1877.29	1.34677
1889.49	0.986214
1901.67	-0.250964
1913.84	0.760189
1925.98	0.769623
1938.11	1.4023
1950.23	1.15819
1962.32	1.66227
1974.4	4.16451
1986.46	2.4149
1998.498	1.66343
2010.52	2.66009
2022.528	3.15489
2034.52	1.27284
2046.49	1.38894
2058.44	2.00321
2070.38	1.86568
2082.3	-0.273637
2094.2	0.335307
2106.09	0.8175391
2117.95	1.6731
2129.804	0.527039
2141.64	0.754397
2153.46	1.10523
2165.25	0.579604
2177.04	2.67756
2188.8	1.02418
2200.551	0.2445167
2212.28	1.83864
2224	2.806632
2235.69	1.52355
2247.38	1.23949
2259.04	1.57952
2270.69	0.543707
2282.32	0.882156
2293.93	0.34494
2305.53	0.0571435
2317.11	2.51885
2328.676	1.98016
2340.23	1.31614
2351.76	2.5269
2363.27	1.86252
2374.77	2.44808
2386.25	2.03368
2397.72	3.6194
2409.17	1.205333
2420.6	2.666568
2432.02	3.12819
2443.42	9.84028
2454.8	18.0529
2466.17	16.3912
2477.53	9.85524
2488.86	8.19506
2500.18	6.035759
2511.49	3.62742
2522.78	4.595118
2534.05	4.93892
2545.3	3.40891
2556.54	4.75514
2567.77	3.35268
2578.978	5.8266
2590.17	5.676959
2601.35	6.27881
2612.51	7.88221
2623.658	12.1122
2634.79	23.2189
2645.9	55.3272
2657	148.562
2668.09	352.924
2679.15	395.163
2690.21	220.278
2701.24	99.2707
2712.27	45.5149
2723.27	20.7611
2734.26	14.6342
2745.24	9.13421
2756.2	6.1362
2767.15	5.01515
2778.08	4.64605
2788.991	3.0289
2799.89	4.41369
2810.77	2.92543
2821.65	0.939082
2832.5	2.70464
2843.34	2.34707
2854.16	2.241363
2864.97	2.01247
2875.77	3.03537
2886.55	2.18503
2897.311	3.83638
2908.061	1.98941
2918.8	0.769043
2929.52	2.17524
2940.22	1.33295
2950.91	0.117094
2961.59	1.90262
2972.25	1.31447
2982.9	1.35256
2993.53	0.766816
3004.14	1.18217
3014.75	2.34854
3025.34	0.76585
3035.91	2.434
3046.47	2.60292
3057.01	1.0225
3067.55	0.692664
3078.06	1.6133
3088.563	1.65934
3099.05	1.58065
3109.52	2.12715
3119.98	1.29873
3130.427	0.595289
3140.86	2.64171
3151.27	1.93791
3161.67	1.10875
3172.06	1.52914
3182.437	1.19897
3192.8	3.74312
3203.14	3.28648
3213.47	1.95395
3223.791	3.3704
3234.1	13.9107
3244.38	26.5748
3254.66	13.9876
3264.92	4.27389
3275.17	2.30862
3285.41	2.21669
3295.63	1.37298
3305.83	1.52738
3316.03	1.6798
3326.21	2.58013
3336.37	0.7282778
3346.52	1.62414
3356.66	2.017632
3366.79	0.7836535
3376.9	2.54712
3386.99	2.55795
3397.08	1.81606
3407.15	2.94638
3417.21	0.948827
3427.25	0.573342
3437.28	1.56986
3447.3	1.31332
3457.3	2.05368
3467.29	1.54087
3477.27	1.52488
3487.23	1.88064
3497.18	1.85815
3507.12	1.957372
3517.04	1.3033
3526.95	-0.4790886
3536.85	0.8602187
3546.73	1.196223
3556.61	1.02894
3566.46	1.35839
3576.31	0.684608
3586.14	1.38264
3595.96	3.07752
3605.77	0.894314
3615.56	1.5831
3625.34	0.518946
3635.11	0.201947
3644.86	0.382211
3654.6	-0.440175
3661.9	0.25388