Folder: GSAMain/data/SEM_Raman_Data/KZPd_180530-1

Note: README.md
<!--[![Build Status](https://travis-ci.com/nanoMFG/GSAMain.svg?token=N4nkhb241rGHotEqsu3q&branch=master)](https://travis-ci.com/nanoMFG/GSAMain) -->

[![Dev Status](https://img.shields.io/endpoint?url=https://salty-headland-67572.herokuapp.com/badges/phase?repo=GSAMain)](https://img.shields.io/endpoint?url=https://salty-headland-67572.herokuapp.com/badges/phase?repo=GSAMain)
### For Developers

#### Software Planning Documents

 * [gresq_SPD_1.1.0.md](https://github.com/nanoMFG/GSAMain/blob/planning_1.1.0/doc/SPD/gresq_SPD_1.1.0.md) \*
 * Draft SPD \*\* <br>


# Graphene-Synthesis-Analysis

<!-- One Paragraph of project description goes here. -->

## Getting Started

The latest production version of this application is hosted **on nanoHUB** for public use:<br/>
[https://nanohub.org/tools/gresq](https://nanohub.org/tools/gresq)

### Installing Locally
These instructions will get you a copy of the project up and running on your local machine for development and testing purposes. See deployment notes (below) for info on how to deploy the project on nanoHUB.

##### Cloning From GitHub:
The code in the repository uses submoded fro mthe GSAImage and GSARaman repos.  Be sure to use `--recurse-submodules` when cloning:
```
$ git clone --recurse-submodules git@github.com:nanoMFG/GSAMain.git
```
If already cloned:
```
$ git submodule init
$ git submodule update
```
See: <br/>
https://git-scm.com/book/en/v2/Git-Tools-Submodules<br/>
for more details on working with submodules.

##### Execute the dashboard GUI
```
$cd src
$python -m gresq
```

### Prerequisites
<!-- 
What things you need to install the software and how to install them -->

#### Using Conda

Install anaconda3 or miniconda3, then:<br/>

```
conda create --name gresq-3.6 python=3.6
conda env create -f <srcdir>/.conda/env_gresq_[osx|linux]_3.6.yml
conda activate env_gresq_[osx|linux]_3.6
```

#### Installing
<!--
A step by step series of examples that tell you have to get a development env running

Say what the step will be

```
Give the example
```

And repeat

```
until finished
```

End with an example of getting some data out of the system or using it for a little demo
-->
From the repository root:<br>
```
pip install ./gsaraman
pip install .
```
or for development:<br/>
```
pip install -e .
```

## Running the tests

<!-- Explain how to run the automated tests for this system -->
Additional prerequisites for testing are:  
```
pytest
factory_boy
```

After installing, run the following from the repository root:
```
pytest -v
```
Note, to avoid broken DB tests:  
```
pytest -v --ignore=test/database/models --ignore=test/util
```

### Break down into end to end tests

<!-- 
Explain what these tests test and why
```
Give an example
```
-->

### And coding style tests
<!-- 
Explain what these tests test and why 
```
Give an example
```
-->

## Deployment

<!-- Add additional notes about how to deploy this on a live system -->

Overview of deployment:
1. Code changes accumulate in development.
2

File: sample.txt
672.793	2851
686.818	2656
700.825	2366
714.807	2283
728.768	2263
742.707	2151
756.623	2187
770.519	2196
784.394	2212
798.246	2218
812.076	2255
825.885	2297
839.673	2206
853.44	2139
867.186	2103
880.909	2201
894.612	2220
908.293	2197
921.953	2419
935.592	3885
949.21	5227
962.805	5196
976.3822	5252
989.936	4447
1003.47	2748
1016.98	2391
1030.48	2040
1043.95	1859
1057.4	1777
1070.83	1835
1084.24	1895
1097.63	1948
1111	1973
1124.35	2070
1137.67	2068
1150.98	2107
1164.27	2218
1177.54	2165
1190.78	2216
1204.01	2385
1217.22	2355
1230.4	2573
1243.57	2586
1256.71	2817
1269.84	3045
1282.95	3374
1296.03	3689
1309.1	4163
1322.15	5062
1335.18	7071
1348.18	8704
1361.17	7446
1374.14	5648
1387.09	4710
1400.02	4123
1412.93	3772
1425.82	3511
1438.69	3239
1451.54	3210
1464.37	3209
1477.19	3127
1489.98	3223
1502.75	3320
1515.51	3341
1528.25	3597
1540.96	3884
1553.66	4602
1566.34	6997
1579	14430
1591.64	13690
1604.27	7408
1616.871	6051
1629.46	5413
1642.02	3483
1654.57	2603
1667.1	2169
1679.61	1740
1692.1	1535
1704.58	1370
1717.03	1175
1729.47	1222
1741.89	1217
1754.29	1186
1766.67	1137
1779.03	1134
1791.379	1121
1803.7	1164
1816.01	1128
1828.31	1062
1840.58	1094
1852.83	1085
1865.07	1064
1877.29	1063
1889.49	1094
1901.67	1102
1913.84	1041
1925.98	1085
1938.11	1033
1950.23	1029
1962.32	1041
1974.4	1047
1986.46	1069
1998.498	1073
2010.52	1100
2022.528	1019
2034.52	1054
2046.49	1041
2058.44	978
2070.38	1028
2082.3	1038
2094.2	1037
2106.09	1019
2117.95	982
2129.804	951
2141.64	1017
2153.46	989
2165.25	984
2177.04	991
2188.8	971
2200.551	944
2212.28	991
2224	996
2235.69	977
2247.38	979
2259.04	1002
2270.69	1029
2282.32	969
2293.93	976
2305.53	1013
2317.11	961
2328.676	940
2340.23	984
2351.76	964
2363.27	977
2374.77	1025
2386.25	1043
2397.72	1114
2409.17	1153
2420.6	1201
2432.02	1250
2443.42	1355
2454.8	1460
2466.17	1418
2477.53	1339
2488.86	1323
2500.18	1310
2511.49	1280
2522.78	1317
2534.05	1337
2545.3	1330
2556.54	1354
2567.77	1444
2578.978	1431
2590.17	1504
2601.35	1588
2612.51	1704
2623.658	1875
2634.79	2154
2645.9	2699
2657	3288
2668.09	4593
2679.15	6244
2690.21	8184
2701.24	8507
2712.27	7111
2723.27	5261
2734.26	3839
2745.24	2844
2756.2	2338
2767.15	1920
2778.08	1774
2788.991	1577
2799.89	1489
2810.77	1517
2821.65	1429
2832.5	1394
2843.34	1396
2854.16	1409
2864.97	1378
2875.77	1384
2886.55	1400
2897.311	1381
2908.061	1469
2918.8	1502
2929.52	1524
2940.22	1544
2950.91	1483
2961.59	1424
2972.25	1345
2982.9	1267
2993.53	1179
3004.14	1160
3014.75	1105
3025.34	1056
3035.91	1054
3046.47	1051
3057.01	992
3067.55	1028
3078.06	1014
3088.563	981
3099.05	932
3109.52	982
3119.98	917
3130.427	860
3140.86	937
3151.27	934
3161.67	931
3172.06	942
3182.437	933
3192.8	929
3203.14	968
3213.47	956
3223.791	1059
3234.1	1144
3244.38	1390
3254.66	1186
3264.92	937
3275.17	883
3285.41	792
3295.63	762
3305.83	752
3316.03	745
3326.21	719
3336.37	693
3346.52	654
3356.66	687
3366.79	695
3376.9	666
3386.99	701
3397.08	703
3407.15	694
3417.21	689
3427.25	716
3437.28	710
3447.3	707
3457.3	670
3467.29	699
3477.27	654
3487.23	676
3497.18	645
3507.12	636
3517.04	632
3526.95	655
3536.85	681
3546.73	628
3556.61	640
3566.46	631
3576.31	667
3586.14	684
3595.96	687
3605.77	662
3615.56	603
3625.34	644
3635.11	647
3644.86	605
3654.6	631
3661.9	608