Folder: GSAMain/data/SEM_Raman_Data/KZPd_180423-1

Note: README.md
<!--[![Build Status](https://travis-ci.com/nanoMFG/GSAMain.svg?token=N4nkhb241rGHotEqsu3q&branch=master)](https://travis-ci.com/nanoMFG/GSAMain) -->

[![Dev Status](https://img.shields.io/endpoint?url=https://salty-headland-67572.herokuapp.com/badges/phase?repo=GSAMain)](https://img.shields.io/endpoint?url=https://salty-headland-67572.herokuapp.com/badges/phase?repo=GSAMain)
### For Developers

#### Software Planning Documents

 * [gresq_SPD_1.1.0.md](https://github.com/nanoMFG/GSAMain/blob/planning_1.1.0/doc/SPD/gresq_SPD_1.1.0.md) \*
 * Draft SPD \*\* <br>


# Graphene-Synthesis-Analysis

<!-- One Paragraph of project description goes here. -->

## Getting Started

The latest production version of this application is hosted **on nanoHUB** for public use:<br/>
[https://nanohub.org/tools/gresq](https://nanohub.org/tools/gresq)

### Installing Locally
These instructions will get you a copy of the project up and running on your local machine for development and testing purposes. See deployment notes (below) for info on how to deploy the project on nanoHUB.

##### Cloning From GitHub:
The code in the repository uses submoded fro mthe GSAImage and GSARaman repos.  Be sure to use `--recurse-submodules` when cloning:
```
$ git clone --recurse-submodules git@github.com:nanoMFG/GSAMain.git
```
If already cloned:
```
$ git submodule init
$ git submodule update
```
See: <br/>
https://git-scm.com/book/en/v2/Git-Tools-Submodules<br/>
for more details on working with submodules.

##### Execute the dashboard GUI
```
$cd src
$python -m gresq
```

### Prerequisites
<!-- 
What things you need to install the software and how to install them -->

#### Using Conda

Install anaconda3 or miniconda3, then:<br/>

```
conda create --name gresq-3.6 python=3.6
conda env create -f <srcdir>/.conda/env_gresq_[osx|linux]_3.6.yml
conda activate env_gresq_[osx|linux]_3.6
```

#### Installing
<!--
A step by step series of examples that tell you have to get a development env running

Say what the step will be

```
Give the example
```

And repeat

```
until finished
```

End with an example of getting some data out of the system or using it for a little demo
-->
From the repository root:<br>
```
pip install ./gsaraman
pip install .
```
or for development:<br/>
```
pip install -e .
```

## Running the tests

<!-- Explain how to run the automated tests for this system -->
Additional prerequisites for testing are:  
```
pytest
factory_boy
```

After installing, run the following from the repository root:
```
pytest -v
```
Note, to avoid broken DB tests:  
```
pytest -v --ignore=test/database/models --ignore=test/util
```

### Break down into end to end tests

<!-- 
Explain what these tests test and why
```
Give an example
```
-->

### And coding style tests
<!-- 
Explain what these tests test and why 
```
Give an example
```
-->

## Deployment

<!-- Add additional notes about how to deploy this on a live system -->

Overview of deployment:
1. Code changes accumulate in development.
2

File: sample.txt
672.793	2755
686.818	2552
700.825	2296
714.807	2160
728.768	2150
742.707	2059
756.623	2026
770.519	2156
784.394	2067
798.246	2209
812.076	2145
825.885	2182
839.673	2073
853.44	1966
867.186	1992
880.909	1986
894.612	2017
908.293	2074
921.953	2594
935.592	5332
949.21	5388
962.805	5455
976.3822	5377
989.936	3188
1003.47	2272
1016.98	1776
1030.48	1469
1043.95	1308
1057.4	1229
1070.83	1237
1084.24	1135
1097.63	1195
1111	1235
1124.35	1238
1137.67	1294
1150.98	1144
1164.27	1103
1177.54	1189
1190.78	1119
1204.01	1166
1217.22	1126
1230.4	1224
1243.57	1103
1256.71	1094
1269.84	1059
1282.95	1090
1296.03	1060
1309.1	1093
1322.15	1150
1335.18	1240
1348.18	1139
1361.17	1110
1374.14	1174
1387.09	1107
1400.02	1054
1412.93	1215
1425.82	1083
1438.69	1002
1451.54	967
1464.37	989
1477.19	961
1489.98	1009
1502.75	985
1515.51	904
1528.25	951
1540.96	999
1553.66	1198
1566.34	2159
1579	4810
1591.64	2819
1604.27	1268
1616.871	1080
1629.46	916
1642.02	834
1654.57	769
1667.1	746
1679.61	705
1692.1	738
1704.58	726
1717.03	705
1729.47	687
1741.89	703
1754.29	678
1766.67	700
1779.03	681
1791.379	677
1803.7	687
1816.01	680
1828.31	739
1840.58	702
1852.83	737
1865.07	746
1877.29	632
1889.49	642
1901.67	671
1913.84	626
1925.98	602
1938.11	648
1950.23	639
1962.32	667
1974.4	697
1986.46	685
1998.498	609
2010.52	606
2022.528	605
2034.52	589
2046.49	568
2058.44	577
2070.38	569
2082.3	586
2094.2	558
2106.09	575
2117.95	557
2129.804	566
2141.64	552
2153.46	541
2165.25	533
2177.04	531
2188.8	526
2200.551	511
2212.28	538
2224	550
2235.69	579
2247.38	570
2259.04	559
2270.69	542
2282.32	523
2293.93	517
2305.53	520
2317.11	530
2328.676	539
2340.23	519
2351.76	548
2363.27	520
2374.77	564
2386.25	500
2397.72	537
2409.17	584
2420.6	565
2432.02	625
2443.42	829
2454.8	1000
2466.17	886
2477.53	747
2488.86	694
2500.18	621
2511.49	586
2522.78	611
2534.05	603
2545.3	566
2556.54	602
2567.77	575
2578.978	603
2590.17	676
2601.35	713
2612.51	821
2623.658	1001
2634.79	1491
2645.9	2830
2657	6198
2668.09	11637
2679.15	11748
2690.21	7102
2701.24	3493
2712.27	1979
2723.27	1338
2734.26	909
2745.24	781
2756.2	698
2767.15	606
2778.08	541
2788.991	551
2799.89	555
2810.77	552
2821.65	537
2832.5	476
2843.34	508
2854.16	484
2864.97	469
2875.77	455
2886.55	435
2897.311	419
2908.061	425
2918.8	434
2929.52	417
2940.22	399
2950.91	438
2961.59	422
2972.25	401
2982.9	381
2993.53	426
3004.14	409
3014.75	398
3025.34	413
3035.91	373
3046.47	356
3057.01	382
3067.55	388
3078.06	372
3088.563	377
3099.05	386
3109.52	371
3119.98	374
3130.427	345
3140.86	383
3151.27	346
3161.67	373
3172.06	357
3182.437	340
3192.8	356
3203.14	352
3213.47	387
3223.791	425
3234.1	705
3244.38	1008
3254.66	731
3264.92	390
3275.17	365
3285.41	344
3295.63	351
3305.83	297
3316.03	304
3326.21	324
3336.37	310
3346.52	283
3356.66	321
3366.79	325
3376.9	309
3386.99	333
3397.08	309
3407.15	300
3417.21	322
3427.25	327
3437.28	291
3447.3	297
3457.3	297
3467.29	277
3477.27	303
3487.23	268
3497.18	297
3507.12	277
3517.04	268
3526.95	296
3536.85	290
3546.73	284
3556.61	279
3566.46	272
3576.31	281
3586.14	254
3595.96	312
3605.77	261
3615.56	277
3625.34	259
3635.11	273
3644.86	267
3654.6	264
3661.9	265