Folder: GSAMain/data/SEM_Raman_Data/KZPd_170926-2

Note: README.md
<!--[![Build Status](https://travis-ci.com/nanoMFG/GSAMain.svg?token=N4nkhb241rGHotEqsu3q&branch=master)](https://travis-ci.com/nanoMFG/GSAMain) -->

[![Dev Status](https://img.shields.io/endpoint?url=https://salty-headland-67572.herokuapp.com/badges/phase?repo=GSAMain)](https://img.shields.io/endpoint?url=https://salty-headland-67572.herokuapp.com/badges/phase?repo=GSAMain)
### For Developers

#### Software Planning Documents

 * [gresq_SPD_1.1.0.md](https://github.com/nanoMFG/GSAMain/blob/planning_1.1.0/doc/SPD/gresq_SPD_1.1.0.md) \*
 * Draft SPD \*\* <br>


# Graphene-Synthesis-Analysis

<!-- One Paragraph of project description goes here. -->

## Getting Started

The latest production version of this application is hosted **on nanoHUB** for public use:<br/>
[https://nanohub.org/tools/gresq](https://nanohub.org/tools/gresq)

### Installing Locally
These instructions will get you a copy of the project up and running on your local machine for development and testing purposes. See deployment notes (below) for info on how to deploy the project on nanoHUB.

##### Cloning From GitHub:
The code in the repository uses submoded fro mthe GSAImage and GSARaman repos.  Be sure to use `--recurse-submodules` when cloning:
```
$ git clone --recurse-submodules git@github.com:nanoMFG/GSAMain.git
```
If already cloned:
```
$ git submodule init
$ git submodule update
```
See: <br/>
https://git-scm.com/book/en/v2/Git-Tools-Submodules<br/>
for more details on working with submodules.

##### Execute the dashboard GUI
```
$cd src
$python -m gresq
```

### Prerequisites
<!-- 
What things you need to install the software and how to install them -->

#### Using Conda

Install anaconda3 or miniconda3, then:<br/>

```
conda create --name gresq-3.6 python=3.6
conda env create -f <srcdir>/.conda/env_gresq_[osx|linux]_3.6.yml
conda activate env_gresq_[osx|linux]_3.6
```

#### Installing
<!--
A step by step series of examples that tell you have to get a development env running

Say what the step will be

```
Give the example
```

And repeat

```
until finished
```

End with an example of getting some data out of the system or using it for a little demo
-->
From the repository root:<br>
```
pip install ./gsaraman
pip install .
```
or for development:<br/>
```
pip install -e .
```

## Running the tests

<!-- Explain how to run the automated tests for this system -->
Additional prerequisites for testing are:  
```
pytest
factory_boy
```

After installing, run the following from the repository root:
```
pytest -v
```
Note, to avoid broken DB tests:  
```
pytest -v --ignore=test/database/models --ignore=test/util
```

### Break down into end to end tests

<!-- 
Explain what these tests test and why
```
Give an example
```
-->

### And coding style tests
<!-- 
Explain what these tests test and why 
```
Give an example
```
-->

## Deployment

<!-- Add additional notes about how to deploy this on a live system -->

Overview of deployment:
1. Code changes accumulate in development.
2

File: KZPd_170926-2_Raman1.txt
672.793	2251.78
686.818	1664.2
700.825	890.499
714.807	303.248
728.768	15.1098
742.707	-3.32017
756.623	47.4957
770.519	400.177
784.394	690.211
798.246	1130.07
812.076	1460.26
825.885	1685.25
839.673	1613.48
853.44	1394.36
867.186	1531.3
880.909	1611.65
894.612	1825.83
908.293	2123.15
921.953	2626.96
935.592	5852.58
949.21	18518.313
962.805	18291.428
976.3822	18834.244
989.936	18275.982
1003.47	8009.93
1016.98	4420.3
1030.48	2360.32
1043.95	683.224
1057.4	289.206
1070.83	166.449
1084.24	-0.832665
1097.63	53.5102
1111	122.658
1124.35	39.7722
1137.67	150
1150.98	151.485
1164.27	148.352
1177.54	97.7523
1190.78	118.784
1204.01	102.5731
1217.22	180.229
1230.4	142.853
1243.57	88.5434
1256.71	184.383
1269.84	159.475
1282.95	244.883
1296.03	272.695
1309.1	395.9823
1322.15	739.814
1335.18	2183.25
1348.18	5660.35
1361.17	3722.18
1374.14	1329.79
1387.09	664.222
1400.02	552.532
1412.93	412.763
1425.82	313.956
1438.69	354.144
1451.54	328.369
1464.37	348.673
1477.19	258.074
1489.98	246.61
1502.75	223.301
1515.51	360.187
1528.25	302.28
1540.96	403.614
1553.66	558.199
1566.34	1032.062
1579	3039.22
1591.64	15018.688
1604.27	12973.489
1616.871	1801.63
1629.46	1269.13
1642.02	682.008
1654.57	483.268
1667.1	291.926
1679.61	226.992
1692.1	155.473
1704.58	126.383
1717.03	154.731
1729.47	49.5262
1741.89	106.777
1754.29	166.491
1766.67	216.673
1779.03	146.333
1791.379	204.482
1803.7	178.117
1816.01	196.254
1828.31	190.896
1840.58	269.046
1852.83	327.717
1865.07	406.907
1877.29	318.628
1889.49	266.883
1901.67	263.676
1913.84	246.018
1925.98	186.909
1938.11	202.359
1950.23	163.372
1962.32	251.954
1974.4	315.111
1986.46	200.846
1998.498	321.17
2010.52	352.0845
2022.528	261.597
2034.52	333.714
2046.49	220.442
2058.44	124.785
2070.38	148.75
2082.3	152.347
2094.2	158.576
2106.09	108.449
2117.95	230.9706
2129.804	169.146
2141.64	106.987
2153.46	94.49437
2165.25	114.678
2177.04	111.546
2188.8	19.1014
2200.551	37.3568
2212.28	66.3154
2224	157.986
2235.69	137.3764
2247.38	193.494
2259.04	168.3438
2270.69	142.938
2282.32	192.279
2293.93	154.378
2305.53	203.2422
2317.11	139.878
2328.676	132.294
2340.23	156.498
2351.76	206.496
2363.27	122.2981
2374.77	176.91
2386.25	199.341
2397.72	253.598
2409.17	304.688
2420.6	341.6196
2432.02	446.4
2443.42	664.037
2454.8	1508.537
2466.17	1828.91
2477.53	1427.16
2488.86	972.294
2500.18	761.3233
2511.49	617.2514
2522.78	544.0874
2534.05	587.837
2545.3	475.507
2556.54	495.104
2567.77	567.636
2578.978	523.108
2590.17	583.527
2601.35	723.899
2612.51	979.23
2623.658	1301.53
2634.79	2202.79
2645.9	3986.04
2657	7952.26
2668.09	16633.475
2679.15	30133.68
2690.21	37419.883
2701.24	25635.086
2712.27	12231.298
2723.27	5910.52
2734.26	3125.76
2745.24	1911.02
2756.2	1276.3
2767.15	861.614
2778.08	680.955
2788.991	501.331
2799.89	400.745
2810.77	363.199
2821.65	320.697
2832.5	314.241
2843.34	257.833
2854.16	265.476
2864.97	274.17
2875.77	253.919
2886.55	242.724
2897.311	232.5851
2908.061	268.505
2918.8	244.482
2929.52	322.52
2940.22	362.618
2950.91	362.776
2961.59	260.994
2972.25	155.272
2982.9	138.609
2993.53	70.0054
3004.14	63.4599
3014.75	97.9717
3025.34	67.5394
3035.91	70.1605
3046.47	95.8356
3057.01	35.5604
3067.55	66.3341
3078.06	22.1531
3088.563	75.0172
3099.05	7.92149
3109.52	69.8639
3119.98	41.8416
3130.427	91.8511
3140.86	31.8879
3151.27	39.94936
3161.67	87.0313
3172.06	74.1299
3182.437	60.2407
3192.8	102.358
3203.14	77.47921
3213.47	144.598
3223.791	216.71
3234.1	444.811
3244.38	1342.89
3254.66	2104.95
3264.92	1185.98
3275.17	340.979
3285.41	122.935
3295.63	115.843
3305.83	84.6979
3316.03	47.4935
3326.21	53.223
3336.37	58.8785
3346.52	16.4551
3356.66	-4.05619
3366.79	9.33821
3376.9	76.6304
3386.99	52.8143
3397.08	72.8806
3407.15	73.8226
3417.21	79.6325
3427.25	71.3021
3437.28	68.8227
3447.3	89.1868
3457.3	67.3861
3467.29	46.4123
3477.27	86.2561
3487.23	72.9103
3497.18	49.3647
3507.12	56.6115
3517.04	65.64109
3526.95	-1.55441
3536.85	45.015
3546.73	20.3405
3556.61	75.4132
3566.46	75.2235
3576.31	80.762
3586.14	37.0195
3595.96	47.9865
3605.77	39.6537
3615.56	71.0111
3625.34	75.0495
3635.11	42.7589
3644.86	51.1297
3654.6	-0.847713
3661.9	35.9347