Folder: GSAMain/data/SEM_Raman_Data/KZPd_180109-2

Note: README.md
<!--[![Build Status](https://travis-ci.com/nanoMFG/GSAMain.svg?token=N4nkhb241rGHotEqsu3q&branch=master)](https://travis-ci.com/nanoMFG/GSAMain) -->

[![Dev Status](https://img.shields.io/endpoint?url=https://salty-headland-67572.herokuapp.com/badges/phase?repo=GSAMain)](https://img.shields.io/endpoint?url=https://salty-headland-67572.herokuapp.com/badges/phase?repo=GSAMain)
### For Developers

#### Software Planning Documents

 * [gresq_SPD_1.1.0.md](https://github.com/nanoMFG/GSAMain/blob/planning_1.1.0/doc/SPD/gresq_SPD_1.1.0.md) \*
 * Draft SPD \*\* <br>


# Graphene-Synthesis-Analysis

<!-- One Paragraph of project description goes here. -->

## Getting Started

The latest production version of this application is hosted **on nanoHUB** for public use:<br/>
[https://nanohub.org/tools/gresq](https://nanohub.org/tools/gresq)

### Installing Locally
These instructions will get you a copy of the project up and running on your local machine for development and testing purposes. See deployment notes (below) for info on how to deploy the project on nanoHUB.

##### Cloning From GitHub:
The code in the repository uses submoded fro mthe GSAImage and GSARaman repos.  Be sure to use `--recurse-submodules` when cloning:
```
$ git clone --recurse-submodules git@github.com:nanoMFG/GSAMain.git
```
If already cloned:
```
$ git submodule init
$ git submodule update
```
See: <br/>
https://git-scm.com/book/en/v2/Git-Tools-Submodules<br/>
for more details on working with submodules.

##### Execute the dashboard GUI
```
$cd src
$python -m gresq
```

### Prerequisites
<!-- 
What things you need to install the software and how to install them -->

#### Using Conda

Install anaconda3 or miniconda3, then:<br/>

```
conda create --name gresq-3.6 python=3.6
conda env create -f <srcdir>/.conda/env_gresq_[osx|linux]_3.6.yml
conda activate env_gresq_[osx|linux]_3.6
```

#### Installing
<!--
A step by step series of examples that tell you have to get a development env running

Say what the step will be

```
Give the example
```

And repeat

```
until finished
```

End with an example of getting some data out of the system or using it for a little demo
-->
From the repository root:<br>
```
pip install ./gsaraman
pip install .
```
or for development:<br/>
```
pip install -e .
```

## Running the tests

<!-- Explain how to run the automated tests for this system -->
Additional prerequisites for testing are:  
```
pytest
factory_boy
```

After installing, run the following from the repository root:
```
pytest -v
```
Note, to avoid broken DB tests:  
```
pytest -v --ignore=test/database/models --ignore=test/util
```

### Break down into end to end tests

<!-- 
Explain what these tests test and why
```
Give an example
```
-->

### And coding style tests
<!-- 
Explain what these tests test and why 
```
Give an example
```
-->

## Deployment

<!-- Add additional notes about how to deploy this on a live system -->

Overview of deployment:
1. Code changes accumulate in development.
2

File: Sample_20180109-2_2.txt
672.793	4.99932
686.818	8.0488
700.825	2.53662
714.807	0.849748
728.768	3.00046
742.707	6.74338e-05
756.623	8.10909
770.519	8.2131
784.394	9.821455
798.246	13.6931
812.076	15.0867
825.885	13.51037
839.673	13.5967
853.44	13.4779
867.186	10.7856
880.909	12.5261
894.612	13.5806
908.293	15.0793
921.953	21.4026
935.592	56.1804
949.21	74.7922
962.805	75.7421
976.3822	74.0344
989.936	47.7974
1003.47	25.1598
1016.98	17.2495
1030.48	7.94448
1043.95	4.1225
1057.4	7.160985
1070.83	3.43717
1084.24	4.20318
1097.63	5.21084
1111	4.211904
1124.35	5.20791
1137.67	5.200263
1150.98	7.44021
1164.27	1.42885
1177.54	1.91721
1190.78	2.65613
1204.01	2.64637
1217.22	4.2636
1230.4	0.00835482
1243.57	4.00611
1256.71	1.25723
1269.84	2.01204
1282.95	3.39574
1296.03	2.5335
1309.1	3.67543
1322.15	4.57156
1335.18	12.3469
1348.18	20.3763
1361.17	10.2848
1374.14	5.69717
1387.09	5.73826
1400.02	4.907865
1412.93	4.33075
1425.82	2.25667
1438.69	3.68531
1451.54	2.8664
1464.37	4.29966
1477.19	4.48471
1489.98	2.54626
1502.75	3.23393
1515.51	5.04742
1528.25	5.48635
1540.96	9.17541
1553.66	10.2392
1566.34	29.3024
1579	86.4897
1591.64	74.0507
1604.27	21.1101
1616.871	14.9175
1629.46	10.0978
1642.02	4.40049
1654.57	4.45037
1667.1	5.24714
1679.61	2.04054
1692.1	1.83029
1704.58	4.61617
1717.03	3.52296
1729.47	4.30045
1741.89	2.94845
1754.29	2.71676
1766.67	2.23021
1779.03	3.61366
1791.379	2.74202
1803.7	3.36509
1816.01	4.23285
1828.31	5.09517
1840.58	3.95199
1852.83	3.80328
1865.07	4.39896
1877.29	5.36404
1889.49	3.07351
1901.67	3.15237
1913.84	4.10066
1925.98	5.29339
1938.11	3.35563
1950.23	3.16244
1962.32	4.3389
1974.4	2.8851
1986.46	4.05114
1998.498	3.46214
2010.52	5.11821
2022.528	4.3945
2034.52	3.66615
2046.49	2.05832
2058.44	2.94616
2070.38	2.57986
2082.3	4.5846
2094.2	1.71055
2106.09	1.58293
2117.95	2.826915
2129.804	2.56773
2141.64	3.68058
2153.46	2.91567
2165.25	1.89824
2177.04	0.753503
2188.8	1.10668
2200.551	2.83301
2212.28	0.807707
2224	1.40601
2235.69	0.00314652
2247.38	2.84935
2259.04	3.56985
2270.69	2.78986
2282.32	1.25963
2293.93	2.72937
2305.53	2.1993
2317.11	0.794641
2328.676	1.89061
2340.23	0.487418
2351.76	2.46027
2363.27	1.68436
2374.77	1.03489
2386.25	3.762048
2397.72	1.86601
2409.17	1.221965
2420.6	3.58007
2432.02	5.19049
2443.42	4.42839
2454.8	8.9189
2466.17	8.41216
2477.53	5.15831
2488.86	2.532464
2500.18	2.28473
2511.49	3.41522
2522.78	2.92401
2534.05	2.8112
2545.3	2.70186
2556.54	4.34604
2567.77	3.61881
2578.978	2.6452
2590.17	2.80026
2601.35	4.20899
2612.51	5.12142
2623.658	7.03754
2634.79	10.7073
2645.9	20.3808
2657	46.5579
2668.09	107.614
2679.15	169.298
2690.21	164.486
2701.24	109.802
2712.27	54.2463
2723.27	28.444
2734.26	17.2699
2745.24	10.2238
2756.2	7.68068
2767.15	5.01533
2778.08	4.10263
2788.991	3.56745
2799.89	3.28463
2810.77	3.12901
2821.65	1.97544
2832.5	3.44872
2843.34	3.29869
2854.16	1.775148
2864.97	3.8779
2875.77	3.60676
2886.55	2.21152
2897.311	4.19196
2908.061	4.04788
2918.8	3.52905
2929.52	2.76027
2940.22	2.6163
2950.91	3.47192
2961.59	3.70191
2972.25	2.68104
2982.9	3.40907
2993.53	2.63579
3004.14	4.11096
3014.75	1.70937
3025.34	2.80579
3035.91	4.024982
3046.47	3.116765
3057.01	4.205894
3067.55	2.54218
3078.06	0.000399844
3088.563	3.70539
3099.05	3.03194
3109.52	4.22987
3119.98	3.54902
3130.427	1.98921
3140.86	4.800302
3151.27	3.35715
3161.67	3.784626
3172.06	3.20762
3182.437	6.00101
3192.8	3.41473
3203.14	3.573693
3213.47	2.72785
3223.791	6.12716
3234.1	4.1466
3244.38	14.2862
3254.66	9.920886
3264.92	4.80079
3275.17	3.17594
3285.41	3.42142
3295.63	3.66235
3305.83	2.52384
3316.03	1.13106
3326.21	3.8592
3336.37	2.83347
3346.52	2.6791
3356.66	1.52138
3366.79	1.3606
3376.9	1.44711
3386.99	1.78125
3397.08	1.98845
3407.15	2.31913
3417.21	2.77377
3427.25	3.10288
3437.28	1.80701
3447.3	1.51175
3457.3	2.59271
3467.29	2.55059
3477.27	1.13608
3487.23	1.84995
3497.18	0.692998
3507.12	1.41607
3517.04	1.52007
3526.95	2.63093
3536.85	-0.00035502
3546.73	1.12727
3556.61	0.639884
3566.46	1.03865
3576.31	1.57476
3586.14	0.749482
3595.96	2.06412
3605.77	1.14506
3615.56	1.11871
3625.34	1.61158
3635.11	0.000211342
3644.86	1.03619
3654.6	1.22126
3661.9	2.00188