Folder: GSAMain/data/SEM_Raman_Data/KZPd_170928-3

Note: README.md
<!--[![Build Status](https://travis-ci.com/nanoMFG/GSAMain.svg?token=N4nkhb241rGHotEqsu3q&branch=master)](https://travis-ci.com/nanoMFG/GSAMain) -->

[![Dev Status](https://img.shields.io/endpoint?url=https://salty-headland-67572.herokuapp.com/badges/phase?repo=GSAMain)](https://img.shields.io/endpoint?url=https://salty-headland-67572.herokuapp.com/badges/phase?repo=GSAMain)
### For Developers

#### Software Planning Documents

 * [gresq_SPD_1.1.0.md](https://github.com/nanoMFG/GSAMain/blob/planning_1.1.0/doc/SPD/gresq_SPD_1.1.0.md) \*
 * Draft SPD \*\* <br>


# Graphene-Synthesis-Analysis

<!-- One Paragraph of project description goes here. -->

## Getting Started

The latest production version of this application is hosted **on nanoHUB** for public use:<br/>
[https://nanohub.org/tools/gresq](https://nanohub.org/tools/gresq)

### Installing Locally
These instructions will get you a copy of the project up and running on your local machine for development and testing purposes. See deployment notes (below) for info on how to deploy the project on nanoHUB.

##### Cloning From GitHub:
The code in the repository uses submoded fro mthe GSAImage and GSARaman repos.  Be sure to use `--recurse-submodules` when cloning:
```
$ git clone --recurse-submodules git@github.com:nanoMFG/GSAMain.git
```
If already cloned:
```
$ git submodule init
$ git submodule update
```
See: <br/>
https://git-scm.com/book/en/v2/Git-Tools-Submodules<br/>
for more details on working with submodules.

##### Execute the dashboard GUI
```
$cd src
$python -m gresq
```

### Prerequisites
<!-- 
What things you need to install the software and how to install them -->

#### Using Conda

Install anaconda3 or miniconda3, then:<br/>

```
conda create --name gresq-3.6 python=3.6
conda env create -f <srcdir>/.conda/env_gresq_[osx|linux]_3.6.yml
conda activate env_gresq_[osx|linux]_3.6
```

#### Installing
<!--
A step by step series of examples that tell you have to get a development env running

Say what the step will be

```
Give the example
```

And repeat

```
until finished
```

End with an example of getting some data out of the system or using it for a little demo
-->
From the repository root:<br>
```
pip install ./gsaraman
pip install .
```
or for development:<br/>
```
pip install -e .
```

## Running the tests

<!-- Explain how to run the automated tests for this system -->
Additional prerequisites for testing are:  
```
pytest
factory_boy
```

After installing, run the following from the repository root:
```
pytest -v
```
Note, to avoid broken DB tests:  
```
pytest -v --ignore=test/database/models --ignore=test/util
```

### Break down into end to end tests

<!-- 
Explain what these tests test and why
```
Give an example
```
-->

### And coding style tests
<!-- 
Explain what these tests test and why 
```
Give an example
```
-->

## Deployment

<!-- Add additional notes about how to deploy this on a live system -->

Overview of deployment:
1. Code changes accumulate in development.
2

File: KZPd_170928-2_Raman1.txt
672.793	598.891
686.818	397.105
700.825	208.814
714.807	26.0872
728.768	34.0505
742.707	38.8255
756.623	156.535
770.519	260.342
784.394	262.384
798.246	396.81
812.076	597.789
825.885	512.4884
839.673	575.077
853.44	537.728
867.186	571.615
880.909	592.908
894.612	702.794
908.293	735.4389
921.953	945.023
935.592	2640.72
949.21	4925.7
962.805	4929.13
976.3822	4963.19
989.936	4393.03
1003.47	1707.82
1016.98	1038.71
1030.48	578.857
1043.95	268.406
1057.4	113.505
1070.83	156.29
1084.24	128.899
1097.63	138.46
1111	91.0974
1124.35	127.932
1137.67	63.077
1150.98	43.6421
1164.27	35.7308
1177.54	53.4415
1190.78	-28.1326
1204.01	18.0963
1217.22	25.2108
1230.4	22.28805
1243.57	-40.5996
1256.71	35.6152
1269.84	86.9939
1282.95	153.594
1296.03	238.469
1309.1	441.664
1322.15	691.224
1335.18	1527.19
1348.18	2184.59
1361.17	2072.46
1374.14	1457.82
1387.09	1021.69
1400.02	592.1012
1412.93	320.058
1425.82	238.572
1438.69	125.653
1451.54	152.303
1464.37	223.526
1477.19	294.318
1489.98	446.676
1502.75	567.591
1515.51	760.056
1528.25	1095.06
1540.96	2124.58
1553.66	4501.61
1566.34	12056.135
1579	25231.125
1591.64	27515.563
1604.27	14915.429
1616.871	5849.69
1629.46	2810.34
1642.02	1454.33
1654.57	777.652
1667.1	432.268
1679.61	282.152
1692.1	88.2742
1704.58	142.606
1717.03	-3.88051
1729.47	71.7837
1741.89	11.5691
1754.29	121.446
1766.67	86.3828
1779.03	45.3518
1791.379	64.3263
1803.7	31.27133
1816.01	-10.8354
1828.31	31.9764
1840.58	26.6778
1852.83	16.2462
1865.07	91.65197
1877.29	74.8725
1889.49	-18.1165
1901.67	30.6604
1913.84	28.1847
1925.98	85.4318
1938.11	75.3834
1950.23	67.0209
1962.32	60.3263
1974.4	143.283
1986.46	161.875
1998.498	206.09
2010.52	155.912
2022.528	106.332
2034.52	176.338
2046.49	118.923
2058.44	102.0758
2070.38	143.792
2082.3	85.06723
2094.2	68.8942
2106.09	126.273
2117.95	109.201
2129.804	61.6779
2141.64	77.7051
2153.46	98.2837
2165.25	91.4174
2177.04	47.1109
2188.8	64.369
2200.551	86.1995
2212.28	96.6092
2224	58.6074
2235.69	132.2036
2247.38	82.4087
2259.04	117.234
2270.69	184.693
2282.32	76.7982
2293.93	106.564
2305.53	91.006
2317.11	64.1393
2328.676	80.9807
2340.23	97.5468
2351.76	158.856
2363.27	106.925
2374.77	135.775
2386.25	167.422
2397.72	194.887
2409.17	342.19
2420.6	479.351
2432.02	818.39
2443.42	1039.33
2454.8	1182.18
2466.17	1083.98
2477.53	1004.74
2488.86	813.477
2500.18	641.217
2511.49	555.98
2522.78	512.7854
2534.05	442.653
2545.3	524.604
2556.54	566.656
2567.77	724.829
2578.978	828.142
2590.17	1011.61
2601.35	1253.26
2612.51	1793.1
2623.658	2397.145
2634.79	3334.418
2645.9	4884.93
2657	6939.7
2668.09	9691.73
2679.15	11960.053
2690.21	13817.663
2701.24	14181.579
2712.27	13892.811
2723.27	12360.366
2734.26	10251.255
2745.24	8001.48
2756.2	5584.062
2767.15	3582.99
2778.08	2232.28
2788.991	1432.93
2799.89	1006.94
2810.77	725.3205
2821.65	514.064
2832.5	521.173
2843.34	363.644
2854.16	292.476
2864.97	259.663
2875.77	271.202
2886.55	221.086
2897.311	210.308
2908.061	220.859
2918.8	222.731
2929.52	206.913
2940.22	142.394
2950.91	227.161
2961.59	175.203
2972.25	193.504
2982.9	123.048
2993.53	124.82
3004.14	84.8051
3014.75	24.9842
3025.34	101.34
3035.91	116.851
3046.47	52.5017
3057.01	49.2684
3067.55	61.1323
3078.06	49.0703
3088.563	48.0643
3099.05	62.0891
3109.52	2.12384
3119.98	63.1463
3130.427	64.1339
3140.86	70.0627
3151.27	72.9116
3161.67	149.658
3172.06	128.279
3182.437	185.753
3192.8	232.058
3203.14	281.173
3213.47	460.077
3223.791	650.752
3234.1	799.177
3244.38	1012.33
3254.66	1021.21
3264.92	851.777
3275.17	551.0318
3285.41	266.958
3295.63	183.542
3305.83	109.774
3316.03	47.6466
3326.21	42.152
3336.37	99.2849
3346.52	70.0446
3356.66	24.4291
3366.79	71.4415
3376.9	86.0863
3386.99	66.3719
3397.08	48.3079
3407.15	102.909
3417.21	74.191
3427.25	93.1751
3437.28	102.8848
3447.3	51.348
3457.3	99.5962
3467.29	58.66526
3477.27	67.5951
3487.23	75.4305
3497.18	10.22031
3507.12	20.0189
3517.04	5.88516
3526.95	36.8838
3536.85	36.0843
3546.73	57.5624
3556.61	5.3995
3566.46	38.683
3576.31	43.5062
3586.14	29.9697
3595.96	35.18042
3605.77	28.2524
3615.56	55.3057
3625.34	53.4703
3635.11	30.8807
3644.86	29.6798
3654.6	51.0228
3661.9	33.6379