Folder: GSAMain/data/SEM_Raman_Data/KZPd_180112-3

Note: README.md
<!--[![Build Status](https://travis-ci.com/nanoMFG/GSAMain.svg?token=N4nkhb241rGHotEqsu3q&branch=master)](https://travis-ci.com/nanoMFG/GSAMain) -->

[![Dev Status](https://img.shields.io/endpoint?url=https://salty-headland-67572.herokuapp.com/badges/phase?repo=GSAMain)](https://img.shields.io/endpoint?url=https://salty-headland-67572.herokuapp.com/badges/phase?repo=GSAMain)
### For Developers

#### Software Planning Documents

 * [gresq_SPD_1.1.0.md](https://github.com/nanoMFG/GSAMain/blob/planning_1.1.0/doc/SPD/gresq_SPD_1.1.0.md) \*
 * Draft SPD \*\* <br>


# Graphene-Synthesis-Analysis

<!-- One Paragraph of project description goes here. -->

## Getting Started

The latest production version of this application is hosted **on nanoHUB** for public use:<br/>
[https://nanohub.org/tools/gresq](https://nanohub.org/tools/gresq)

### Installing Locally
These instructions will get you a copy of the project up and running on your local machine for development and testing purposes. See deployment notes (below) for info on how to deploy the project on nanoHUB.

##### Cloning From GitHub:
The code in the repository uses submoded fro mthe GSAImage and GSARaman repos.  Be sure to use `--recurse-submodules` when cloning:
```
$ git clone --recurse-submodules git@github.com:nanoMFG/GSAMain.git
```
If already cloned:
```
$ git submodule init
$ git submodule update
```
See: <br/>
https://git-scm.com/book/en/v2/Git-Tools-Submodules<br/>
for more details on working with submodules.

##### Execute the dashboard GUI
```
$cd src
$python -m gresq
```

### Prerequisites
<!-- 
What things you need to install the software and how to install them -->

#### Using Conda

Install anaconda3 or miniconda3, then:<br/>

```
conda create --name gresq-3.6 python=3.6
conda env create -f <srcdir>/.conda/env_gresq_[osx|linux]_3.6.yml
conda activate env_gresq_[osx|linux]_3.6
```

#### Installing
<!--
A step by step series of examples that tell you have to get a development env running

Say what the step will be

```
Give the example
```

And repeat

```
until finished
```

End with an example of getting some data out of the system or using it for a little demo
-->
From the repository root:<br>
```
pip install ./gsaraman
pip install .
```
or for development:<br/>
```
pip install -e .
```

## Running the tests

<!-- Explain how to run the automated tests for this system -->
Additional prerequisites for testing are:  
```
pytest
factory_boy
```

After installing, run the following from the repository root:
```
pytest -v
```
Note, to avoid broken DB tests:  
```
pytest -v --ignore=test/database/models --ignore=test/util
```

### Break down into end to end tests

<!-- 
Explain what these tests test and why
```
Give an example
```
-->

### And coding style tests
<!-- 
Explain what these tests test and why 
```
Give an example
```
-->

## Deployment

<!-- Add additional notes about how to deploy this on a live system -->

Overview of deployment:
1. Code changes accumulate in development.
2

File: Sample_20180112-3_1.txt
672.793	8.89712
686.818	2.37906
700.825	4.78688
714.807	-0.0015573
728.768	1.76709
742.707	3.34585
756.623	2.36248
770.519	7.94514
784.394	7.97135
798.246	9.31861
812.076	9.114584
825.885	11.9867
839.673	8.68726
853.44	9.84355
867.186	7.08271
880.909	13.9067
894.612	11.69278
908.293	13.1926
921.953	17.2832
935.592	58.8412
949.21	66.6184
962.805	60.7413
976.3822	69.8367
989.936	35.9059
1003.47	20.9504
1016.98	15.4715
1030.48	9.59568
1043.95	6.57404
1057.4	4.78285
1070.83	5.72321
1084.24	3.3963
1097.63	4.80308
1111	5.06959
1124.35	6.69679
1137.67	5.81058
1150.98	3.78682
1164.27	5.12632
1177.54	6.454896
1190.78	4.64825
1204.01	4.4571
1217.22	4.50713
1230.4	3.54896
1243.57	1.83319
1256.71	4.48538
1269.84	3.88109
1282.95	1.1458
1296.03	3.52999
1309.1	2.28412
1322.15	2.90862
1335.18	7.02887
1348.18	4.27023
1361.17	6.258081
1374.14	4.492723
1387.09	2.22447
1400.02	4.32861
1412.93	4.80541
1425.82	3.5301
1438.69	5.002902
1451.54	3.34904
1464.37	3.31872
1477.19	2.03708
1489.98	2.62931
1502.75	2.34554
1515.51	2.31093
1528.25	3.77557
1540.96	4.2396
1553.66	3.32809
1566.34	11.6661
1579	49.3788
1591.64	30.0912
1604.27	7.1783
1616.871	4.39022
1629.46	4.85198
1642.02	5.06361
1654.57	3.150131
1667.1	0.9865669
1679.61	1.57293
1692.1	1.7842
1704.58	1.74541
1717.03	2.83153
1729.47	1.54257
1741.89	0.878503
1754.29	3.83932
1766.67	2.29997
1779.03	3.01046
1791.379	3.345763
1803.7	0.555813
1816.01	1.76561
1828.31	0.100113
1840.58	3.93427
1852.83	1.39306
1865.07	3.47643
1877.29	2.18434
1889.49	4.01675
1901.67	5.59861
1913.84	2.3049
1925.98	1.63555
1938.11	2.34053
1950.23	5.1698
1962.32	2.12331
1974.4	1.57602
1986.46	2.52789
1998.498	3.10388
2010.52	3.30394
2022.528	3.00304
2034.52	3.32614
2046.49	2.2732
2058.44	2.84418
2070.38	2.78906
2082.3	3.48281
2094.2	2.30038
2106.09	1.49175
2117.95	2.5569
2129.804	3.49579
2141.64	2.18342
2153.46	1.74474
2165.25	2.55474
2177.04	2.48841
2188.8	3.04572
2200.551	4.10168
2212.28	3.406249
2224	3.70944
2235.69	3.63623
2247.38	2.93662
2259.04	2.36061
2270.69	1.53319
2282.32	4.07937
2293.93	4.12415
2305.53	2.91753
2317.11	4.08453
2328.676	0.00013741
2340.23	3.66438
2351.76	1.45227
2363.27	3.61382
2374.77	3.39904
2386.25	6.30796
2397.72	1.34059
2409.17	4.87196
2420.6	5.40209
2432.02	3.68102
2443.42	7.58375
2454.8	7.985332
2466.17	8.26079
2477.53	5.53516
2488.86	5.43346
2500.18	3.45574
2511.49	5.47704
2522.78	4.372386
2534.05	3.89182
2545.3	4.03538
2556.54	4.30312
2567.77	2.57007
2578.978	4.58627
2590.17	4.35177
2601.35	6.49161
2612.51	6.13084
2623.658	9.5195
2634.79	15.9076
2645.9	25.7953
2657	61.8075
2668.09	110.9444
2679.15	128.456
2690.21	80.3422
2701.24	36.6032
2712.27	20.61397
2723.27	12.7496
2734.26	7.510201
2745.24	5.02072
2756.2	5.53123
2767.15	3.79178
2778.08	3.55242
2788.991	3.93818
2799.89	4.19912
2810.77	3.33528
2821.65	3.596694
2832.5	3.35841
2843.34	4.62046
2854.16	4.38288
2864.97	3.39572
2875.77	2.03401
2886.55	1.29778
2897.311	2.56206
2908.061	1.576895
2918.8	4.0923
2929.52	3.60831
2940.22	-5.73613e-05
2950.91	2.89223
2961.59	1.41018
2972.25	2.92883
2982.9	2.19819
2993.53	1.71826
3004.14	2.239068
3014.75	4.01062
3025.34	1.782919
3035.91	1.55597
3046.47	3.204777
3057.01	1.35433
3067.55	1.62964
3078.06	1.905679
3088.563	1.43245
3099.05	2.70994
3109.52	2.36312
3119.98	3.01698
3130.427	2.67149
3140.86	2.70162
3151.27	2.35734
3161.67	3.63862
3172.06	2.04542
3182.437	1.32769
3192.8	0.985392
3203.14	2.26847
3213.47	3.17687
3223.791	2.08553
3234.1	6.1194
3244.38	11.7784
3254.66	5.56246
3264.92	1.2215
3275.17	2.13045
3285.41	2.41422
3295.63	1.57271
3305.83	1.10584
3316.03	2.13851
3326.21	1.9206
3336.37	1.57702
3346.52	2.10765
3356.66	3.01236
3366.79	1.66604
3376.9	2.06855
3386.99	1.59476
3397.08	2.99453
3407.15	1.76772
3417.21	1.91417
3427.25	1.43374
3437.28	2.57624
3447.3	3.96653
3457.3	2.22943
3467.29	1.86476
3477.27	2.99734
3487.23	2.626967
3497.18	1.753459
3507.12	1.87661
3517.04	2.62122
3526.95	2.36206
3536.85	0.973926
3546.73	2.08159
3556.61	0.809811
3566.46	1.78336
3576.31	2.627
3586.14	2.21547
3595.96	1.79852
3605.77	0.875883
3615.56	1.6973
3625.34	1.137481
3635.11	2.19616
3644.86	0.873051
3654.6	0.4178392
3661.9	0.352848