Folder: GSAMain/data/SEM_Raman_Data/KZPd_180112-1

Note: README.md
<!--[![Build Status](https://travis-ci.com/nanoMFG/GSAMain.svg?token=N4nkhb241rGHotEqsu3q&branch=master)](https://travis-ci.com/nanoMFG/GSAMain) -->

[![Dev Status](https://img.shields.io/endpoint?url=https://salty-headland-67572.herokuapp.com/badges/phase?repo=GSAMain)](https://img.shields.io/endpoint?url=https://salty-headland-67572.herokuapp.com/badges/phase?repo=GSAMain)
### For Developers

#### Software Planning Documents

 * [gresq_SPD_1.1.0.md](https://github.com/nanoMFG/GSAMain/blob/planning_1.1.0/doc/SPD/gresq_SPD_1.1.0.md) \*
 * Draft SPD \*\* <br>


# Graphene-Synthesis-Analysis

<!-- One Paragraph of project description goes here. -->

## Getting Started

The latest production version of this application is hosted **on nanoHUB** for public use:<br/>
[https://nanohub.org/tools/gresq](https://nanohub.org/tools/gresq)

### Installing Locally
These instructions will get you a copy of the project up and running on your local machine for development and testing purposes. See deployment notes (below) for info on how to deploy the project on nanoHUB.

##### Cloning From GitHub:
The code in the repository uses submoded fro mthe GSAImage and GSARaman repos.  Be sure to use `--recurse-submodules` when cloning:
```
$ git clone --recurse-submodules git@github.com:nanoMFG/GSAMain.git
```
If already cloned:
```
$ git submodule init
$ git submodule update
```
See: <br/>
https://git-scm.com/book/en/v2/Git-Tools-Submodules<br/>
for more details on working with submodules.

##### Execute the dashboard GUI
```
$cd src
$python -m gresq
```

### Prerequisites
<!-- 
What things you need to install the software and how to install them -->

#### Using Conda

Install anaconda3 or miniconda3, then:<br/>

```
conda create --name gresq-3.6 python=3.6
conda env create -f <srcdir>/.conda/env_gresq_[osx|linux]_3.6.yml
conda activate env_gresq_[osx|linux]_3.6
```

#### Installing
<!--
A step by step series of examples that tell you have to get a development env running

Say what the step will be

```
Give the example
```

And repeat

```
until finished
```

End with an example of getting some data out of the system or using it for a little demo
-->
From the repository root:<br>
```
pip install ./gsaraman
pip install .
```
or for development:<br/>
```
pip install -e .
```

## Running the tests

<!-- Explain how to run the automated tests for this system -->
Additional prerequisites for testing are:  
```
pytest
factory_boy
```

After installing, run the following from the repository root:
```
pytest -v
```
Note, to avoid broken DB tests:  
```
pytest -v --ignore=test/database/models --ignore=test/util
```

### Break down into end to end tests

<!-- 
Explain what these tests test and why
```
Give an example
```
-->

### And coding style tests
<!-- 
Explain what these tests test and why 
```
Give an example
```
-->

## Deployment

<!-- Add additional notes about how to deploy this on a live system -->

Overview of deployment:
1. Code changes accumulate in development.
2

File: Sample_20180112-1_1.txt
672.793	9.29175
686.818	7.00431
700.825	4.82394
714.807	3.51258e-05
728.768	4.15743
742.707	1.17089
756.623	3.29014
770.519	5.14026
784.394	5.72109
798.246	9.28251
812.076	9.19964
825.885	10.3476
839.673	9.97635
853.44	5.08618
867.186	6.92722
880.909	8.62458
894.612	9.05367
908.293	10.3396
921.953	11.2327
935.592	57.1083
949.21	66.5918
962.805	68.6833
976.3822	69.2584
989.936	39.9424
1003.47	22.98567
1016.98	10.38859
1030.48	6.65159
1043.95	4.15009
1057.4	2.88449
1070.83	2.855186
1084.24	1.43769
1097.63	3.13233
1111	1.43959
1124.35	0.609905
1137.67	5.1437
1150.98	3.416398
1164.27	2.1784
1177.54	5.80519
1190.78	2.54712
1204.01	4.15464
1217.22	1.12816
1230.4	6.09308
1243.57	2.9248
1256.71	1.748673
1269.84	5.44014
1282.95	6.62452
1296.03	3.9272
1309.1	3.223551
1322.15	3.88891
1335.18	6.67361
1348.18	7.95296
1361.17	4.97733
1374.14	6.37198
1387.09	2.88723
1400.02	4.39837
1412.93	3.40567
1425.82	4.03441
1438.69	5.784822
1451.54	3.90717
1464.37	6.7767
1477.19	5.51862
1489.98	5.50814
1502.75	4.62047
1515.51	3.98082
1528.25	6.21435
1540.96	6.07125
1553.66	6.80167
1566.34	19.1558
1579	45.13369
1591.64	29.8606
1604.27	6.83651
1616.871	5.68665
1629.46	2.78609
1642.02	3.13492
1654.57	1.233234
1667.1	2.70611
1679.61	2.80362
1692.1	2.02581
1704.58	-0.00225626
1717.03	0.469476
1729.47	1.69104
1741.89	0.7874788
1754.29	2.38381
1766.67	2.48003
1779.03	1.70118
1791.379	3.67227
1803.7	2.51826
1816.01	4.3642
1828.31	2.96004
1840.58	2.43078
1852.83	2.151402
1865.07	2.24687
1877.29	4.09216
1889.49	3.93724
1901.67	2.28207
1913.84	2.12662
1925.98	2.59584
1938.11	0.814676
1950.23	4.03309
1962.32	2.25104
1974.4	2.21845
1986.46	3.18527
1998.498	1.77647
2010.52	2.99195
2022.528	4.83168
2034.52	3.04559
2046.49	3.25863
2058.44	4.84571
2070.38	3.30679
2082.3	3.14182
2094.2	2.47571
2106.09	3.80842
2117.95	2.01488
2129.804	2.47003
2141.64	2.79882
2153.46	0.00118104
2165.25	2.70206
2177.04	1.02641
2188.8	2.59917
2200.551	4.29529
2212.28	3.48972
2224	3.182421
2235.69	4.12334
2247.38	2.93744
2259.04	2.12467
2270.69	3.68501
2282.32	4.3684
2293.93	4.674839
2305.53	3.47928
2317.11	1.65671
2328.676	0.957085
2340.23	4.00541
2351.76	3.05165
2363.27	3.22081
2374.77	3.13787
2386.25	4.30282
2397.72	4.46568
2409.17	4.62643
2420.6	2.78508
2432.02	3.94164
2443.42	7.22113
2454.8	10.9986
2466.17	9.27394
2477.53	7.92231
2488.86	6.06869
2500.18	4.83811
2511.49	4.48061
2522.78	5.12123
2534.05	4.259994
2545.3	5.89696
2556.54	3.657182
2567.77	5.2907
2578.978	4.54758
2590.17	3.80287
2601.35	6.30664
2612.51	5.93394
2623.658	8.93486
2634.79	13.3095
2645.9	17.4328
2657	42.055
2668.09	104.301
2679.15	187.171
2690.21	169.04
2701.24	70.5336
2712.27	32.1511
2723.27	16.893
2734.26	10.0093
2745.24	7.75017
2756.2	5.990612
2767.15	4.60576
2778.08	5.22072
2788.991	4.96059
2799.89	5.57545
2810.77	2.31542
2821.65	4.80558
2832.5	2.92105
2843.34	3.66192
2854.16	2.90328
2864.97	3.89524
2875.77	4.0129
2886.55	3.63135
2897.311	2.87569
2908.061	1.49601
2918.8	2.99241
2929.52	0.114978
2940.22	2.3638
2950.91	1.86397
2961.59	0.24056
2972.25	1.86866
2982.9	2.37335
2993.53	1.8797
3004.14	2.88778
3014.75	3.89767
3025.34	1.65942
3035.91	2.67308
3046.47	1.43873
3057.01	2.33139
3067.55	2.10113
3078.06	2.12297
3088.563	1.02195
3099.05	1.79809
3109.52	2.82641
3119.98	0.981924
3130.427	2.26464
3140.86	1.54955
3151.27	4.33665
3161.67	2.250912
3172.06	1.91732
3182.437	2.33584
3192.8	1.38141
3203.14	1.80399
3213.47	1.47852
3223.791	0.6549207
3234.1	3.83311
3244.38	12.263
3254.66	7.94445
3264.92	3.502389
3275.17	2.93667
3285.41	1.99715
3295.63	0.0586728
3305.83	-0.00392115
3316.03	1.18419
3326.21	1.87281
3336.37	1.06173
3346.52	2.000747
3356.66	3.0646
3366.79	1.00306
3376.9	2.06585
3386.99	2.2527
3397.08	1.0633
3407.15	2.99735
3417.21	2.67952
3427.25	2.60947
3437.28	3.91181
3447.3	1.96119
3457.3	2.38219
3467.29	1.7994
3477.27	1.08739
3487.23	3.2457
3497.18	2.14886
3507.12	0.796362
3517.04	2.4377
3526.95	2.44735
3536.85	1.44973
3546.73	1.19429
3556.61	1.68042
3566.46	2.40749
3576.31	2.62487
3586.14	2.581897
3595.96	2.77787
3605.77	1.21208
3615.56	0.133798
3625.34	1.91725
3635.11	1.68666
3644.86	0.691247
3654.6	0.930121
3661.9	0.0672175