Folder: GSAMain/data/SEM_Raman_Data/KZPd_180417-1

Note: README.md
<!--[![Build Status](https://travis-ci.com/nanoMFG/GSAMain.svg?token=N4nkhb241rGHotEqsu3q&branch=master)](https://travis-ci.com/nanoMFG/GSAMain) -->

[![Dev Status](https://img.shields.io/endpoint?url=https://salty-headland-67572.herokuapp.com/badges/phase?repo=GSAMain)](https://img.shields.io/endpoint?url=https://salty-headland-67572.herokuapp.com/badges/phase?repo=GSAMain)
### For Developers

#### Software Planning Documents

 * [gresq_SPD_1.1.0.md](https://github.com/nanoMFG/GSAMain/blob/planning_1.1.0/doc/SPD/gresq_SPD_1.1.0.md) \*
 * Draft SPD \*\* <br>


# Graphene-Synthesis-Analysis

<!-- One Paragraph of project description goes here. -->

## Getting Started

The latest production version of this application is hosted **on nanoHUB** for public use:<br/>
[https://nanohub.org/tools/gresq](https://nanohub.org/tools/gresq)

### Installing Locally
These instructions will get you a copy of the project up and running on your local machine for development and testing purposes. See deployment notes (below) for info on how to deploy the project on nanoHUB.

##### Cloning From GitHub:
The code in the repository uses submoded fro mthe GSAImage and GSARaman repos.  Be sure to use `--recurse-submodules` when cloning:
```
$ git clone --recurse-submodules git@github.com:nanoMFG/GSAMain.git
```
If already cloned:
```
$ git submodule init
$ git submodule update
```
See: <br/>
https://git-scm.com/book/en/v2/Git-Tools-Submodules<br/>
for more details on working with submodules.

##### Execute the dashboard GUI
```
$cd src
$python -m gresq
```

### Prerequisites
<!-- 
What things you need to install the software and how to install them -->

#### Using Conda

Install anaconda3 or miniconda3, then:<br/>

```
conda create --name gresq-3.6 python=3.6
conda env create -f <srcdir>/.conda/env_gresq_[osx|linux]_3.6.yml
conda activate env_gresq_[osx|linux]_3.6
```

#### Installing
<!--
A step by step series of examples that tell you have to get a development env running

Say what the step will be

```
Give the example
```

And repeat

```
until finished
```

End with an example of getting some data out of the system or using it for a little demo
-->
From the repository root:<br>
```
pip install ./gsaraman
pip install .
```
or for development:<br/>
```
pip install -e .
```

## Running the tests

<!-- Explain how to run the automated tests for this system -->
Additional prerequisites for testing are:  
```
pytest
factory_boy
```

After installing, run the following from the repository root:
```
pytest -v
```
Note, to avoid broken DB tests:  
```
pytest -v --ignore=test/database/models --ignore=test/util
```

### Break down into end to end tests

<!-- 
Explain what these tests test and why
```
Give an example
```
-->

### And coding style tests
<!-- 
Explain what these tests test and why 
```
Give an example
```
-->

## Deployment

<!-- Add additional notes about how to deploy this on a live system -->

Overview of deployment:
1. Code changes accumulate in development.
2

File: sample.txt
672.793	3876
686.818	3564
700.825	3204
714.807	2938
728.768	2862
742.707	2730
756.623	2711
770.519	2703
784.394	2736
798.246	2836
812.076	2875
825.885	2843
839.673	2700
853.44	2602
867.186	2610
880.909	2633
894.612	2642
908.293	2669
921.953	2861
935.592	5020
949.21	7200
962.805	7155
976.3822	7159
989.936	5896
1003.47	3337
1016.98	2643
1030.48	2104
1043.95	1773
1057.4	1693
1070.83	1665
1084.24	1581
1097.63	1499
1111	1507
1124.35	1506
1137.67	1486
1150.98	1492
1164.27	1498
1177.54	1418
1190.78	1418
1204.01	1403
1217.22	1402
1230.4	1338
1243.57	1321
1256.71	1304
1269.84	1337
1282.95	1267
1296.03	1291
1309.1	1297
1322.15	1365
1335.18	1543
1348.18	1748
1361.17	1425
1374.14	1244
1387.09	1265
1400.02	1223
1412.93	1153
1425.82	1122
1438.69	1123
1451.54	1207
1464.37	1138
1477.19	1130
1489.98	1093
1502.75	1114
1515.51	1084
1528.25	1115
1540.96	1123
1553.66	1253
1566.34	1642
1579	3751
1591.64	5326
1604.27	1710
1616.871	1288
1629.46	1150
1642.02	999
1654.57	1000
1667.1	943
1679.61	901
1692.1	956
1704.58	844
1717.03	865
1729.47	839
1741.89	853
1754.29	858
1766.67	798
1779.03	887
1791.379	834
1803.7	830
1816.01	854
1828.31	825
1840.58	813
1852.83	853
1865.07	874
1877.29	869
1889.49	815
1901.67	776
1913.84	751
1925.98	775
1938.11	790
1950.23	794
1962.32	762
1974.4	821
1986.46	798
1998.498	806
2010.52	783
2022.528	757
2034.52	740
2046.49	761
2058.44	688
2070.38	737
2082.3	715
2094.2	657
2106.09	678
2117.95	658
2129.804	711
2141.64	681
2153.46	638
2165.25	674
2177.04	649
2188.8	647
2200.551	649
2212.28	651
2224	621
2235.69	644
2247.38	670
2259.04	628
2270.69	614
2282.32	664
2293.93	637
2305.53	572
2317.11	616
2328.676	591
2340.23	597
2351.76	578
2363.27	597
2374.77	636
2386.25	610
2397.72	631
2409.17	652
2420.6	672
2432.02	691
2443.42	810
2454.8	1099
2466.17	1064
2477.53	924
2488.86	814
2500.18	768
2511.49	713
2522.78	675
2534.05	664
2545.3	637
2556.54	655
2567.77	666
2578.978	708
2590.17	691
2601.35	751
2612.51	802
2623.658	952
2634.79	1175
2645.9	1958
2657	3896
2668.09	8244
2679.15	12747
2690.21	11012
2701.24	5855
2712.27	2860
2723.27	1650
2734.26	1147
2745.24	895
2756.2	782
2767.15	721
2778.08	637
2788.991	614
2799.89	566
2810.77	565
2821.65	556
2832.5	623
2843.34	548
2854.16	540
2864.97	545
2875.77	523
2886.55	518
2897.311	483
2908.061	509
2918.8	487
2929.52	477
2940.22	490
2950.91	502
2961.59	473
2972.25	457
2982.9	450
2993.53	431
3004.14	441
3014.75	435
3025.34	452
3035.91	445
3046.47	451
3057.01	428
3067.55	417
3078.06	446
3088.563	435
3099.05	434
3109.52	449
3119.98	422
3130.427	434
3140.86	439
3151.27	459
3161.67	425
3172.06	399
3182.437	396
3192.8	438
3203.14	409
3213.47	417
3223.791	447
3234.1	548
3244.38	966
3254.66	997
3264.92	582
3275.17	415
3285.41	385
3295.63	377
3305.83	370
3316.03	341
3326.21	345
3336.37	364
3346.52	347
3356.66	353
3366.79	354
3376.9	351
3386.99	383
3397.08	329
3407.15	360
3417.21	352
3427.25	362
3437.28	343
3447.3	355
3457.3	351
3467.29	346
3477.27	387
3487.23	303
3497.18	314
3507.12	319
3517.04	327
3526.95	305
3536.85	318
3546.73	335
3556.61	324
3566.46	301
3576.31	322
3586.14	319
3595.96	344
3605.77	301
3615.56	300
3625.34	297
3635.11	283
3644.86	303
3654.6	309
3661.9	282