Folder: GSAMain/data/SEM_Raman_Data/KZPd_180321-1

Note: README.md
<!--[![Build Status](https://travis-ci.com/nanoMFG/GSAMain.svg?token=N4nkhb241rGHotEqsu3q&branch=master)](https://travis-ci.com/nanoMFG/GSAMain) -->

[![Dev Status](https://img.shields.io/endpoint?url=https://salty-headland-67572.herokuapp.com/badges/phase?repo=GSAMain)](https://img.shields.io/endpoint?url=https://salty-headland-67572.herokuapp.com/badges/phase?repo=GSAMain)
### For Developers

#### Software Planning Documents

 * [gresq_SPD_1.1.0.md](https://github.com/nanoMFG/GSAMain/blob/planning_1.1.0/doc/SPD/gresq_SPD_1.1.0.md) \*
 * Draft SPD \*\* <br>


# Graphene-Synthesis-Analysis

<!-- One Paragraph of project description goes here. -->

## Getting Started

The latest production version of this application is hosted **on nanoHUB** for public use:<br/>
[https://nanohub.org/tools/gresq](https://nanohub.org/tools/gresq)

### Installing Locally
These instructions will get you a copy of the project up and running on your local machine for development and testing purposes. See deployment notes (below) for info on how to deploy the project on nanoHUB.

##### Cloning From GitHub:
The code in the repository uses submoded fro mthe GSAImage and GSARaman repos.  Be sure to use `--recurse-submodules` when cloning:
```
$ git clone --recurse-submodules git@github.com:nanoMFG/GSAMain.git
```
If already cloned:
```
$ git submodule init
$ git submodule update
```
See: <br/>
https://git-scm.com/book/en/v2/Git-Tools-Submodules<br/>
for more details on working with submodules.

##### Execute the dashboard GUI
```
$cd src
$python -m gresq
```

### Prerequisites
<!-- 
What things you need to install the software and how to install them -->

#### Using Conda

Install anaconda3 or miniconda3, then:<br/>

```
conda create --name gresq-3.6 python=3.6
conda env create -f <srcdir>/.conda/env_gresq_[osx|linux]_3.6.yml
conda activate env_gresq_[osx|linux]_3.6
```

#### Installing
<!--
A step by step series of examples that tell you have to get a development env running

Say what the step will be

```
Give the example
```

And repeat

```
until finished
```

End with an example of getting some data out of the system or using it for a little demo
-->
From the repository root:<br>
```
pip install ./gsaraman
pip install .
```
or for development:<br/>
```
pip install -e .
```

## Running the tests

<!-- Explain how to run the automated tests for this system -->
Additional prerequisites for testing are:  
```
pytest
factory_boy
```

After installing, run the following from the repository root:
```
pytest -v
```
Note, to avoid broken DB tests:  
```
pytest -v --ignore=test/database/models --ignore=test/util
```

### Break down into end to end tests

<!-- 
Explain what these tests test and why
```
Give an example
```
-->

### And coding style tests
<!-- 
Explain what these tests test and why 
```
Give an example
```
-->

## Deployment

<!-- Add additional notes about how to deploy this on a live system -->

Overview of deployment:
1. Code changes accumulate in development.
2

File: 321-1_1(NucDens).csv
 ,Area,Mean,Min,Max
1,4177610.947,255,255,255
2,48.077,255,255,255
3,221.893,255,255,255
4,22.189,255,255,255
5,92.456,255,255,255
6,351.331,255,255,255
7,48.077,255,255,255
8,29.586,255,255,255
9,73.964,255,255,255
10,22.189,255,255,255
11,59.172,255,255,255
12,36.982,255,255,255
13,33.284,255,255,255
14,22.189,255,255,255
15,48.077,255,255,255
16,40.680,255,255,255
17,88.757,255,255,255
18,62.870,255,255,255
19,40.680,255,255,255
20,22.189,255,255,255
21,25.888,255,255,255
22,22.189,255,255,255
23,25.888,255,255,255
24,22.189,255,255,255
25,22.189,255,255,255
26,48.077,255,255,255
27,25.888,255,255,255
28,36.982,255,255,255
29,22.189,255,255,255
30,66.568,255,255,255
31,36.982,255,255,255
32,29.586,255,255,255
33,25.888,255,255,255
34,29.586,255,255,255
35,96.154,255,255,255
36,66.568,255,255,255
37,22.189,255,255,255
38,25.888,255,255,255
39,70.266,255,255,255
40,77.663,255,255,255
41,22.189,255,255,255
42,55.473,255,255,255
43,29.586,255,255,255
44,33.284,255,255,255
45,73.964,255,255,255
46,51.775,255,255,255
47,25.888,255,255,255
48,29.586,255,255,255
49,25.888,255,255,255
50,36.982,255,255,255
51,22.189,255,255,255
52,22.189,255,255,255
53,70.266,255,255,255
54,22.189,255,255,255
55,22.189,255,255,255
56,44.379,255,255,255
57,129.438,255,255,255
58,40.680,255,255,255
59,59.172,255,255,255
60,25.888,255,255,255
61,59.172,255,255,255
62,22.189,255,255,255
63,44.379,255,255,255
64,107.249,255,255,255
65,22.189,255,255,255
66,44.379,255,255,255
67,25.888,255,255,255
68,22.189,255,255,255
69,85.059,255,255,255
70,114.645,255,255,255
71,22.189,255,255,255
72,29.586,255,255,255
73,25.888,255,255,255
74,25.888,255,255,255
75,22.189,255,255,255
76,166.420,255,255,255
77,22.189,255,255,255
78,25.888,255,255,255

File: 20180321-1_sample.txt
672.793	3075
686.818	2790
700.825	2536
714.807	2279
728.768	2325
742.707	2241
756.623	2229
770.519	2197
784.394	2231
798.246	2171
812.076	2252
825.885	2287
839.673	2142
853.44	2082
867.186	2053
880.909	2156
894.612	2097
908.293	2187
921.953	2329
935.592	3982
949.21	5583
962.805	5438
976.3822	5767
989.936	4752
1003.47	2557
1016.98	2138
1030.48	1701
1043.95	1392
1057.4	1348
1070.83	1297
1084.24	1263
1097.63	1203
1111	1215
1124.35	1170
1137.67	1159
1150.98	1211
1164.27	1117
1177.54	1108
1190.78	1110
1204.01	1154
1217.22	1093
1230.4	1061
1243.57	1033
1256.71	986
1269.84	1005
1282.95	981
1296.03	1028
1309.1	1020
1322.15	940
1335.18	1012
1348.18	1093
1361.17	966
1374.14	987
1387.09	996
1400.02	949
1412.93	941
1425.82	900
1438.69	956
1451.54	929
1464.37	944
1477.19	866
1489.98	901
1502.75	861
1515.51	851
1528.25	864
1540.96	950
1553.66	962
1566.34	1549
1579	3639
1591.64	2802
1604.27	1084
1616.871	871
1629.46	836
1642.02	806
1654.57	774
1667.1	717
1679.61	749
1692.1	723
1704.58	673
1717.03	681
1729.47	665
1741.89	678
1754.29	710
1766.67	663
1779.03	706
1791.379	664
1803.7	696
1816.01	687
1828.31	681
1840.58	713
1852.83	693
1865.07	710
1877.29	619
1889.49	631
1901.67	645
1913.84	607
1925.98	595
1938.11	629
1950.23	628
1962.32	651
1974.4	659
1986.46	622
1998.498	641
2010.52	586
2022.528	603
2034.52	600
2046.49	628
2058.44	588
2070.38	546
2082.3	565
2094.2	532
2106.09	551
2117.95	550
2129.804	533
2141.64	524
2153.46	555
2165.25	550
2177.04	522
2188.8	532
2200.551	477
2212.28	497
2224	531
2235.69	537
2247.38	547
2259.04	514
2270.69	497
2282.32	481
2293.93	535
2305.53	502
2317.11	506
2328.676	500
2340.23	476
2351.76	508
2363.27	509
2374.77	484
2386.25	508
2397.72	519
2409.17	579
2420.6	531
2432.02	610
2443.42	723
2454.8	939
2466.17	845
2477.53	695
2488.86	621
2500.18	570
2511.49	590
2522.78	524
2534.05	550
2545.3	552
2556.54	540
2567.77	559
2578.978	555
2590.17	599
2601.35	660
2612.51	714
2623.658	918
2634.79	1380
2645.9	2422
2657	5232
2668.09	9869
2679.15	10224
2690.21	5955
2701.24	2683
2712.27	1536
2723.27	972
2734.26	795
2745.24	659
2756.2	581
2767.15	563
2778.08	484
2788.991	488
2799.89	499
2810.77	471
2821.65	464
2832.5	465
2843.34	418
2854.16	413
2864.97	448
2875.77	431
2886.55	396
2897.311	386
2908.061	388
2918.8	406
2929.52	404
2940.22	400
2950.91	388
2961.59	395
2972.25	364
2982.9	389
2993.53	362
3004.14	354
3014.75	367
3025.34	388
3035.91	361
3046.47	356
3057.01	362
3067.55	366
3078.06	351
3088.563	363
3099.05	356
3109.52	338
3119.98	346
3130.427	334
3140.86	337
3151.27	321
3161.67	326
3172.06	339
3182.437	356
3192.8	328
3203.14	331
3213.47	364
3223.791	442
3234.1	623
3244.38	880
3254.66	600
3264.92	375
3275.17	322
3285.41	305
3295.63	295
3305.83	323
3316.03	313
3326.21	265
3336.37	289
3346.52	276
3356.66	282
3366.79	297
3376.9	331
3386.99	295
3397.08	276
3407.15	300
3417.21	294
3427.25	293
3437.28	282
3447.3	306
3457.3	284
3467.29	286
3477.27	292
3487.23	275
3497.18	280
3507.12	282
3517.04	282
3526.95	278
3536.85	263
3546.73	261
3556.61	272
3566.46	270
3576.31	278
3586.14	259
3595.96	260
3605.77	273
3615.56	257
3625.34	257
3635.11	259
3644.86	242
3654.6	237
3661.9	268