Folder: GSAMain/data/SEM_Raman_Data/KZPd_170904-3

Note: README.md
<!--[![Build Status](https://travis-ci.com/nanoMFG/GSAMain.svg?token=N4nkhb241rGHotEqsu3q&branch=master)](https://travis-ci.com/nanoMFG/GSAMain) -->

[![Dev Status](https://img.shields.io/endpoint?url=https://salty-headland-67572.herokuapp.com/badges/phase?repo=GSAMain)](https://img.shields.io/endpoint?url=https://salty-headland-67572.herokuapp.com/badges/phase?repo=GSAMain)
### For Developers

#### Software Planning Documents

 * [gresq_SPD_1.1.0.md](https://github.com/nanoMFG/GSAMain/blob/planning_1.1.0/doc/SPD/gresq_SPD_1.1.0.md) \*
 * Draft SPD \*\* <br>


# Graphene-Synthesis-Analysis

<!-- One Paragraph of project description goes here. -->

## Getting Started

The latest production version of this application is hosted **on nanoHUB** for public use:<br/>
[https://nanohub.org/tools/gresq](https://nanohub.org/tools/gresq)

### Installing Locally
These instructions will get you a copy of the project up and running on your local machine for development and testing purposes. See deployment notes (below) for info on how to deploy the project on nanoHUB.

##### Cloning From GitHub:
The code in the repository uses submoded fro mthe GSAImage and GSARaman repos.  Be sure to use `--recurse-submodules` when cloning:
```
$ git clone --recurse-submodules git@github.com:nanoMFG/GSAMain.git
```
If already cloned:
```
$ git submodule init
$ git submodule update
```
See: <br/>
https://git-scm.com/book/en/v2/Git-Tools-Submodules<br/>
for more details on working with submodules.

##### Execute the dashboard GUI
```
$cd src
$python -m gresq
```

### Prerequisites
<!-- 
What things you need to install the software and how to install them -->

#### Using Conda

Install anaconda3 or miniconda3, then:<br/>

```
conda create --name gresq-3.6 python=3.6
conda env create -f <srcdir>/.conda/env_gresq_[osx|linux]_3.6.yml
conda activate env_gresq_[osx|linux]_3.6
```

#### Installing
<!--
A step by step series of examples that tell you have to get a development env running

Say what the step will be

```
Give the example
```

And repeat

```
until finished
```

End with an example of getting some data out of the system or using it for a little demo
-->
From the repository root:<br>
```
pip install ./gsaraman
pip install .
```
or for development:<br/>
```
pip install -e .
```

## Running the tests

<!-- Explain how to run the automated tests for this system -->
Additional prerequisites for testing are:  
```
pytest
factory_boy
```

After installing, run the following from the repository root:
```
pytest -v
```
Note, to avoid broken DB tests:  
```
pytest -v --ignore=test/database/models --ignore=test/util
```

### Break down into end to end tests

<!-- 
Explain what these tests test and why
```
Give an example
```
-->

### And coding style tests
<!-- 
Explain what these tests test and why 
```
Give an example
```
-->

## Deployment

<!-- Add additional notes about how to deploy this on a live system -->

Overview of deployment:
1. Code changes accumulate in development.
2

File: 20170924_Gr on SiO2_2_spec.txt
672.793	204.134
686.818	120.889
700.825	61.276
714.807	38.4555
728.768	-0.409861
742.707	9.83344
756.623	-6.66861
770.519	54.228
784.394	75.6568
798.246	91.74617
812.076	113.62
825.885	45.3972
839.673	57.1884
853.44	54.1006
867.186	35.2347
880.909	21.68664
894.612	28.5473
908.293	145.903
921.953	199.833
935.592	915.415
949.21	1200.72
962.805	1190.82
976.3822	1208.76
989.936	617.624
1003.47	239.45
1016.98	104.292
1030.48	21.19647
1043.95	-66.7929
1057.4	-85.6372
1070.83	-75.3002
1084.24	-87.7499
1097.63	-87.95639
1111	-6.89366
1124.35	-21.5383
1137.67	35.1301
1150.98	93.1295
1164.27	66.47506
1177.54	65.1796
1190.78	67.2532
1204.01	108.704
1217.22	90.5388
1230.4	98.7607
1243.57	129.372
1256.71	199.373
1269.84	202.762
1282.95	237.536
1296.03	257.69
1309.1	412.219
1322.15	481.115
1335.18	927.3692
1348.18	1472.97
1361.17	1148.913
1374.14	723.18
1387.09	550.76
1400.02	609.641
1412.93	594.808
1425.82	629.246
1438.69	614.938
1451.54	706.871
1464.37	748.028
1477.19	796.391
1489.98	844.943
1502.75	874.667
1515.51	979.547
1528.25	1005.56
1540.96	1004.7
1553.66	905.937
1566.34	961.259
1579	1342.65
1591.64	1895.08
1604.27	2847.55
1616.871	1097.03
1629.46	638.513
1642.02	358.973
1654.57	270.398
1667.1	181.772
1679.61	97.0784
1692.1	38.3016
1704.58	2.42774
1717.03	-20.5573
1729.47	-10.6674
1741.89	-32.916
1754.29	-27.3158
1766.67	-1.88027
1779.03	-27.6199
1791.379	2.4554
1803.7	-1.66833
1816.01	22.0023
1828.31	11.4568
1840.58	4.68563
1852.83	-17.3174
1865.07	-32.5618
1877.29	36.9467
1889.49	26.2018
1901.67	2.197248
1913.84	14.9297
1925.98	28.3934
1938.11	10.5853
1950.23	67.5026
1962.32	67.1427
1974.4	57.504
1986.46	50.5847
1998.498	46.3854
2010.52	63.905
2022.528	46.14481
2034.52	63.106
2046.49	84.7902
2058.44	54.1996
2070.38	37.3374
2082.3	20.2072
2094.2	54.8121
2106.09	64.15744
2117.95	67.2477
2129.804	103.088
2141.64	95.6849
2153.46	100.044
2165.25	52.918
2177.04	46.0762
2188.8	36.7639
2200.551	16.2429
2212.28	31.5214
2224	41.6077
2235.69	24.51067
2247.38	56.2393
2259.04	29.80294
2270.69	47.2108
2282.32	85.473
2293.93	26.59936
2305.53	29.5998
2317.11	11.4847
2328.676	-2.73531
2340.23	36.9497
2351.76	11.5509
2363.27	-3.921376
2374.77	8.54402
2386.25	24.957
2397.72	1.32884
2409.17	36.6705
2420.6	1.99232
2432.02	3.30494
2443.42	66.619
2454.8	142.945
2466.17	84.2937
2477.53	58.6749
2488.86	19.0987
2500.18	35.5751
2511.49	7.11408
2522.78	19.72463
2534.05	41.4167
2545.3	32.1991
2556.54	44.0806
2567.77	21.0698
2578.978	51.1753
2590.17	40.4046
2601.35	64.7658
2612.51	96.2661
2623.658	149.913
2634.79	185.712
2645.9	323.67
2657	548.794
2668.09	899.088
2679.15	1519.56
2690.21	2151.21
2701.24	2082.04
2712.27	1466.07
2723.27	769.287
2734.26	451.7
2745.24	259.3111
2756.2	174.1227
2767.15	115.1367
2778.08	64.3542
2788.991	12.7763
2799.89	10.4033
2810.77	54.235
2821.65	38.2714
2832.5	8.51114
2843.34	9.95299
2854.16	23.5952
2864.97	1.43505
2875.77	-34.5293
2886.55	15.6981
2897.311	20.114
2908.061	45.7145
2918.8	73.49472
2929.52	78.4507
2940.22	59.5761
2950.91	9.86587
2961.59	12.3141
2972.25	26.9142
2982.9	2.65873
2993.53	-6.45861
3004.14	3.55473
3014.75	22.6909
3025.34	-13.0582
3035.91	16.2984
3046.47	-1.24632
3057.01	36.297
3067.55	3.92037
3078.06	32.6133
3088.563	8.36828
3099.05	0.173778
3109.52	15.0208
3119.98	40.8995
3130.427	-0.200219
3140.86	-2.289191
3151.27	18.6233
3161.67	6.52694
3172.06	-6.58829
3182.437	14.2674
3192.8	-11.9168
3203.14	-0.149918
3213.47	5.55802
3223.791	37.1975
3234.1	54.7592
3244.38	108.2328
3254.66	149.61
3264.92	47.8834
3275.17	17.0431
3285.41	32.08197
3295.63	4.99152
3305.83	27.7655
3316.03	-16.6027
3326.21	-2.1191
3336.37	22.2101
3346.52	-4.61853
3356.66	15.3894
3366.79	-8.76896
3376.9	10.9033
3386.99	1.405
3397.08	36.7341
3407.15	18.8909
3417.21	-8.12379
3427.25	7.69153
3437.28	31.3393
3447.3	27.8237
3457.3	21.1495
3467.29	48.3231
3477.27	1.3513
3487.23	17.2435
3497.18	34.0089
3507.12	13.6594
3517.04	22.2074
3526.95	20.6678
3536.85	31.056
3546.73	22.3898
3556.61	37.6882
3566.46	6.97231
3576.31	29.2646
3586.14	18.5897
3595.96	18.9742
3605.77	14.4466
3615.56	28.037
3625.34	11.7785
3635.11	22.7054
3644.86	27.8545
3654.6	0.265761
3661.9	17.2709