Folder: GSAMain/data/SEM_Raman_Data/KZPd_170903-2

Note: README.md
<!--[![Build Status](https://travis-ci.com/nanoMFG/GSAMain.svg?token=N4nkhb241rGHotEqsu3q&branch=master)](https://travis-ci.com/nanoMFG/GSAMain) -->

[![Dev Status](https://img.shields.io/endpoint?url=https://salty-headland-67572.herokuapp.com/badges/phase?repo=GSAMain)](https://img.shields.io/endpoint?url=https://salty-headland-67572.herokuapp.com/badges/phase?repo=GSAMain)
### For Developers

#### Software Planning Documents

 * [gresq_SPD_1.1.0.md](https://github.com/nanoMFG/GSAMain/blob/planning_1.1.0/doc/SPD/gresq_SPD_1.1.0.md) \*
 * Draft SPD \*\* <br>


# Graphene-Synthesis-Analysis

<!-- One Paragraph of project description goes here. -->

## Getting Started

The latest production version of this application is hosted **on nanoHUB** for public use:<br/>
[https://nanohub.org/tools/gresq](https://nanohub.org/tools/gresq)

### Installing Locally
These instructions will get you a copy of the project up and running on your local machine for development and testing purposes. See deployment notes (below) for info on how to deploy the project on nanoHUB.

##### Cloning From GitHub:
The code in the repository uses submoded fro mthe GSAImage and GSARaman repos.  Be sure to use `--recurse-submodules` when cloning:
```
$ git clone --recurse-submodules git@github.com:nanoMFG/GSAMain.git
```
If already cloned:
```
$ git submodule init
$ git submodule update
```
See: <br/>
https://git-scm.com/book/en/v2/Git-Tools-Submodules<br/>
for more details on working with submodules.

##### Execute the dashboard GUI
```
$cd src
$python -m gresq
```

### Prerequisites
<!-- 
What things you need to install the software and how to install them -->

#### Using Conda

Install anaconda3 or miniconda3, then:<br/>

```
conda create --name gresq-3.6 python=3.6
conda env create -f <srcdir>/.conda/env_gresq_[osx|linux]_3.6.yml
conda activate env_gresq_[osx|linux]_3.6
```

#### Installing
<!--
A step by step series of examples that tell you have to get a development env running

Say what the step will be

```
Give the example
```

And repeat

```
until finished
```

End with an example of getting some data out of the system or using it for a little demo
-->
From the repository root:<br>
```
pip install ./gsaraman
pip install .
```
or for development:<br/>
```
pip install -e .
```

## Running the tests

<!-- Explain how to run the automated tests for this system -->
Additional prerequisites for testing are:  
```
pytest
factory_boy
```

After installing, run the following from the repository root:
```
pytest -v
```
Note, to avoid broken DB tests:  
```
pytest -v --ignore=test/database/models --ignore=test/util
```

### Break down into end to end tests

<!-- 
Explain what these tests test and why
```
Give an example
```
-->

### And coding style tests
<!-- 
Explain what these tests test and why 
```
Give an example
```
-->

## Deployment

<!-- Add additional notes about how to deploy this on a live system -->

Overview of deployment:
1. Code changes accumulate in development.
2

File: 20170924_Gr on SiO2_2_spec.txt
672.793	170.416
686.818	166.988
700.825	48.39085
714.807	-4.23221
728.768	7.26654
742.707	-1.977204
756.623	40.1627
770.519	-30.1868
784.394	66.0864
798.246	81.0887
812.076	105.925
825.885	165.691
839.673	150.479
853.44	106.373
867.186	54.45343
880.909	79.7946
894.612	144.47
908.293	140.542
921.953	298.075
935.592	1097.126
949.21	1681.75
962.805	1624.99
976.3822	1680.9
989.936	1222.53
1003.47	433.902
1016.98	296.063
1030.48	93.0458
1043.95	-22.1188
1057.4	-7.40244
1070.83	-15.7798
1084.24	-28.226
1097.63	-29.721
1111	55.7551
1124.35	51.2197
1137.67	67.688
1150.98	7.17367
1164.27	53.6881
1177.54	100.243
1190.78	36.8456
1204.01	80.5045
1217.22	137.226
1230.4	84.0147
1243.57	136.875
1256.71	151.8087
1269.84	138.8194
1282.95	160.907
1296.03	176.071
1309.1	206.312
1322.15	324.629
1335.18	474.019
1348.18	665.48
1361.17	661.009
1374.14	494.601
1387.09	439.2543
1400.02	427.9632
1412.93	459.723
1425.82	504.53
1438.69	531.376
1451.54	574.258
1464.37	624.17
1477.19	625.105
1489.98	659.057
1502.75	788.021
1515.51	720.991
1528.25	805.959
1540.96	845.921
1553.66	853.87
1566.34	1293.8
1579	3245.7
1591.64	6799.57
1604.27	5306.41
1616.871	1405.2
1629.46	725.94
1642.02	368.627
1654.57	191.254
1667.1	177.815
1679.61	117.306
1692.1	57.7209
1704.58	35.0553
1717.03	35.3051
1729.47	18.4659
1741.89	31.5334
1754.29	15.5038
1766.67	2.37272
1779.03	10.1373
1791.379	14.7951
1803.7	20.3412
1816.01	21.7746
1828.31	-20.9078
1840.58	6.2911
1852.83	22.3705
1865.07	2.32738
1877.29	-6.83924
1889.49	32.8693
1901.67	-6.548686
1913.84	-5.09298
1925.98	15.2348
1938.11	-23.56535
1950.23	3.50646
1962.32	-5.549789
1974.4	-9.73382
1986.46	14.9544
1998.498	11.5163
2010.52	11.9521
2022.528	35.2631
2034.52	53.4507
2046.49	-4.48367
2058.44	14.4613
2070.38	38.2877
2082.3	18.9979
2094.2	-4.40681
2106.09	27.0767
2117.95	2.45058
2129.804	31.7173
2141.64	55.8801
2153.46	1.94144
2165.25	33.9045
2177.04	50.7725
2188.8	8.54857
2200.551	1.23633
2212.28	5.83906
2224	14.3604
2235.69	40.8042
2247.38	32.174
2259.04	30.4736
2270.69	30.7072
2282.32	22.8785
2293.93	-20.0083
2305.53	-15.9491
2317.11	-26.94
2328.676	-36.9766
2340.23	20.9452
2351.76	9.82971
2363.27	15.6811
2374.77	-30.4964
2386.25	6.30154
2397.72	14.0792
2409.17	21.8408
2420.6	48.5906
2432.02	42.33279
2443.42	88.0717
2454.8	142.811
2466.17	145.556
2477.53	119.31
2488.86	76.0773
2500.18	73.8616
2511.49	83.6672
2522.78	40.4979
2534.05	59.3576
2545.3	59.25013
2556.54	31.17911
2567.77	42.1482
2578.978	80.161
2590.17	72.2211
2601.35	86.3316
2612.51	127.496
2623.658	161.718
2634.79	226.999
2645.9	380.3439
2657	655.7547
2668.09	1131.23
2679.15	1888.79
2690.21	2855.41
2701.24	2927.11
2712.27	2063.89
2723.27	1257.75
2734.26	671.698
2745.24	441.7272
2756.2	260.843
2767.15	121.047
2778.08	157.341
2788.991	88.7268
2799.89	76.2048
2810.77	46.7761
2821.65	59.4423
2832.5	29.2037
2843.34	24.0611
2854.16	5.01516
2864.97	55.0658
2875.77	53.214
2886.55	62.4592
2897.311	46.8015
2908.061	56.2407
2918.8	-1.22386
2929.52	22.4079
2940.22	33.1347
2950.91	38.9558
2961.59	42.8705
2972.25	46.8774
2982.9	21.97488
2993.53	24.1619
3004.14	9.43682
3014.75	50.79784
3025.34	29.2431
3035.91	15.7699
3046.47	8.377183
3057.01	34.0614
3067.55	55.8206
3078.06	18.6515
3088.563	28.5525
3099.05	25.5193
3109.52	0.54948
3119.98	12.6397
3130.427	12.78658
3140.86	3.98595
3151.27	-5.76522
3161.67	11.529
3172.06	5.864852
3182.437	-1.76193
3192.8	-4.35613
3203.14	12.0785
3213.47	24.5372
3223.791	52.0156
3234.1	95.5089
3244.38	187.011
3254.66	99.5186
3264.92	70.0257
3275.17	24.52704
3285.41	4.01755
3295.63	16.49085
3305.83	17.942
3316.03	24.0796
3326.21	28.4692
3336.37	-13.8958
3346.52	8.408392
3356.66	23.66
3366.79	9.85339
3376.9	13.9818
3386.99	7.03963
3397.08	17.01926
3407.15	11.9148
3417.21	16.7193
3427.25	37.4261
3437.28	37.0278
3447.3	33.5177
3457.3	49.889
3467.29	61.1344
3477.27	29.2463
3487.23	41.2184
3497.18	17.0423
3507.12	45.71125
3517.04	24.2173
3526.95	19.5536
3536.85	44.7121
3546.73	61.6852
3556.61	65.4655
3566.46	53.0451
3576.31	53.4161
3586.14	63.5708
3595.96	65.5015
3605.77	69.2002
3615.56	57.659
3625.34	47.87
3635.11	39.8252
3644.86	36.5166
3654.6	56.9362
3661.9	16.3177