Folder: GSAMain/data/SEM_Raman_Data/KZPd_180415-2

Note: README.md
<!--[![Build Status](https://travis-ci.com/nanoMFG/GSAMain.svg?token=N4nkhb241rGHotEqsu3q&branch=master)](https://travis-ci.com/nanoMFG/GSAMain) -->

[![Dev Status](https://img.shields.io/endpoint?url=https://salty-headland-67572.herokuapp.com/badges/phase?repo=GSAMain)](https://img.shields.io/endpoint?url=https://salty-headland-67572.herokuapp.com/badges/phase?repo=GSAMain)
### For Developers

#### Software Planning Documents

 * [gresq_SPD_1.1.0.md](https://github.com/nanoMFG/GSAMain/blob/planning_1.1.0/doc/SPD/gresq_SPD_1.1.0.md) \*
 * Draft SPD \*\* <br>


# Graphene-Synthesis-Analysis

<!-- One Paragraph of project description goes here. -->

## Getting Started

The latest production version of this application is hosted **on nanoHUB** for public use:<br/>
[https://nanohub.org/tools/gresq](https://nanohub.org/tools/gresq)

### Installing Locally
These instructions will get you a copy of the project up and running on your local machine for development and testing purposes. See deployment notes (below) for info on how to deploy the project on nanoHUB.

##### Cloning From GitHub:
The code in the repository uses submoded fro mthe GSAImage and GSARaman repos.  Be sure to use `--recurse-submodules` when cloning:
```
$ git clone --recurse-submodules git@github.com:nanoMFG/GSAMain.git
```
If already cloned:
```
$ git submodule init
$ git submodule update
```
See: <br/>
https://git-scm.com/book/en/v2/Git-Tools-Submodules<br/>
for more details on working with submodules.

##### Execute the dashboard GUI
```
$cd src
$python -m gresq
```

### Prerequisites
<!-- 
What things you need to install the software and how to install them -->

#### Using Conda

Install anaconda3 or miniconda3, then:<br/>

```
conda create --name gresq-3.6 python=3.6
conda env create -f <srcdir>/.conda/env_gresq_[osx|linux]_3.6.yml
conda activate env_gresq_[osx|linux]_3.6
```

#### Installing
<!--
A step by step series of examples that tell you have to get a development env running

Say what the step will be

```
Give the example
```

And repeat

```
until finished
```

End with an example of getting some data out of the system or using it for a little demo
-->
From the repository root:<br>
```
pip install ./gsaraman
pip install .
```
or for development:<br/>
```
pip install -e .
```

## Running the tests

<!-- Explain how to run the automated tests for this system -->
Additional prerequisites for testing are:  
```
pytest
factory_boy
```

After installing, run the following from the repository root:
```
pytest -v
```
Note, to avoid broken DB tests:  
```
pytest -v --ignore=test/database/models --ignore=test/util
```

### Break down into end to end tests

<!-- 
Explain what these tests test and why
```
Give an example
```
-->

### And coding style tests
<!-- 
Explain what these tests test and why 
```
Give an example
```
-->

## Deployment

<!-- Add additional notes about how to deploy this on a live system -->

Overview of deployment:
1. Code changes accumulate in development.
2

File: 415-2_1(%Cov).csv
 ,Label,Area,Mean,Min,Max
1,,2902071.938,255,255,255
2,,3834.721,255,255,255
3,,805.589,255,255,255
4,,306.183,255,255,255
5,,1043.401,255,255,255
6,,193.222,255,255,255
7,,166.468,255,255,255
8,,1254.459,255,255,255
9,,228.894,255,255,255
10,,1307.967,255,255,255
11,,576.694,255,255,255
12,,386.445,255,255,255
13,,228.894,255,255,255
14,,217.004,255,255,255
15,,115.933,255,255,255
16,,101.070,255,255,255
17,,255.648,255,255,255
18,,401.308,255,255,255
19,,410.226,255,255,255
20,,653.983,255,255,255
21,,121.879,255,255,255
22,,237.812,255,255,255
23,,1724.138,255,255,255
24,,160.523,255,255,255
25,,181.332,255,255,255
26,,1043.401,255,255,255
27,,692.628,255,255,255
28,,169.441,255,255,255
29,,401.308,255,255,255
30,,145.660,255,255,255
31,,1299.049,255,255,255
32,,454.816,255,255,255
33,,175.386,255,255,255
34,,270.511,255,255,255
35,,112.961,255,255,255
36,,428.062,255,255,255
37,,1447.681,255,255,255
38,,282.402,255,255,255
39,,6016.647,255,255,255
40,,172.414,255,255,255
41,,109.988,255,255,255
42,,294.293,255,255,255
43,,460.761,255,255,255
44,,276.457,255,255,255
45,,225.922,255,255,255
46,,591.558,255,255,255
47,,419.144,255,255,255
48,,154.578,255,255,255
49,,249.703,255,255,255
50,,130.797,255,255,255
51,,3326.397,255,255,255
52,,142.687,255,255,255
53,,217.004,255,255,255
54,,104.043,255,255,255
55,,115.933,255,255,255
56,,324.019,255,255,255
57,,136.742,255,255,255
58,,157.551,255,255,255
59,,2291.914,255,255,255
60,,157.551,255,255,255
61,,121.879,255,255,255
62,,101.070,255,255,255
63,,142.687,255,255,255
64,,1521.998,255,255,255
65,,175.386,255,255,255
66,,109.988,255,255,255
67,,514.269,255,255,255
68,,107.015,255,255,255
69,,217.004,255,255,255
70,,683.710,255,255,255
71,,481.570,255,255,255
72,,109.988,255,255,255
73,,124.851,255,255,255
74,,157.551,255,255,255
75,,151.605,255,255,255
76,,199.168,255,255,255
77,,148.633,255,255,255
78,,603.448,255,255,255
79,Mean,37764.833,255,255,255
80,SD,328532.110,0,0,0
81,Min,101.070,255,255,255
82,Max,2902071.938,255,255,255

File: sample.txt
672.793	3255
686.818	3016
700.825	2674
714.807	2537
728.768	2393
742.707	2345
756.623	2388
770.519	2342
784.394	2442
798.246	2428
812.076	2425
825.885	2412
839.673	2304
853.44	2236
867.186	2228
880.909	2206
894.612	2230
908.293	2314
921.953	2502
935.592	4684
949.21	6080
962.805	6030
976.3822	6135
989.936	4904
1003.47	2862
1016.98	2190
1030.48	1806
1043.95	1502
1057.4	1386
1070.83	1353
1084.24	1361
1097.63	1293
1111	1330
1124.35	1288
1137.67	1280
1150.98	1300
1164.27	1236
1177.54	1275
1190.78	1190
1204.01	1189
1217.22	1196
1230.4	1169
1243.57	1108
1256.71	1079
1269.84	1106
1282.95	1180
1296.03	1057
1309.1	1109
1322.15	1057
1335.18	1111
1348.18	1212
1361.17	1135
1374.14	1035
1387.09	1128
1400.02	1051
1412.93	1017
1425.82	958
1438.69	994
1451.54	1013
1464.37	970
1477.19	1040
1489.98	1001
1502.75	973
1515.51	961
1528.25	965
1540.96	1047
1553.66	1090
1566.34	1614
1579	4127
1591.64	4164
1604.27	1436
1616.871	1078
1629.46	1002
1642.02	860
1654.57	856
1667.1	847
1679.61	822
1692.1	783
1704.58	721
1717.03	743
1729.47	706
1741.89	732
1754.29	735
1766.67	766
1779.03	710
1791.379	702
1803.7	779
1816.01	734
1828.31	767
1840.58	732
1852.83	774
1865.07	779
1877.29	684
1889.49	686
1901.67	671
1913.84	649
1925.98	640
1938.11	673
1950.23	670
1962.32	648
1974.4	727
1986.46	702
1998.498	718
2010.52	672
2022.528	657
2034.52	628
2046.49	590
2058.44	595
2070.38	618
2082.3	603
2094.2	576
2106.09	559
2117.95	591
2129.804	604
2141.64	560
2153.46	572
2165.25	534
2177.04	529
2188.8	550
2200.551	548
2212.28	541
2224	552
2235.69	583
2247.38	598
2259.04	557
2270.69	568
2282.32	594
2293.93	561
2305.53	500
2317.11	508
2328.676	497
2340.23	531
2351.76	533
2363.27	526
2374.77	574
2386.25	554
2397.72	526
2409.17	552
2420.6	602
2432.02	659
2443.42	847
2454.8	1039
2466.17	982
2477.53	796
2488.86	664
2500.18	620
2511.49	590
2522.78	626
2534.05	586
2545.3	564
2556.54	619
2567.77	612
2578.978	585
2590.17	616
2601.35	691
2612.51	788
2623.658	901
2634.79	1224
2645.9	2107
2657	4478
2668.09	9681
2679.15	13318
2690.21	10137
2701.24	4880
2712.27	2293
2723.27	1393
2734.26	958
2745.24	770
2756.2	712
2767.15	634
2778.08	575
2788.991	523
2799.89	516
2810.77	535
2821.65	492
2832.5	492
2843.34	515
2854.16	469
2864.97	445
2875.77	441
2886.55	440
2897.311	447
2908.061	421
2918.8	414
2929.52	432
2940.22	418
2950.91	398
2961.59	426
2972.25	414
2982.9	379
2993.53	375
3004.14	393
3014.75	374
3025.34	373
3035.91	389
3046.47	427
3057.01	389
3067.55	393
3078.06	369
3088.563	385
3099.05	347
3109.52	359
3119.98	372
3130.427	355
3140.86	347
3151.27	351
3161.67	366
3172.06	367
3182.437	358
3192.8	357
3203.14	316
3213.47	336
3223.791	413
3234.1	564
3244.38	1118
3254.66	861
3264.92	428
3275.17	327
3285.41	319
3295.63	328
3305.83	340
3316.03	318
3326.21	316
3336.37	305
3346.52	316
3356.66	306
3366.79	297
3376.9	308
3386.99	269
3397.08	314
3407.15	325
3417.21	309
3427.25	273
3437.28	302
3447.3	290
3457.3	301
3467.29	271
3477.27	311
3487.23	286
3497.18	286
3507.12	251
3517.04	277
3526.95	266
3536.85	292
3546.73	264
3556.61	307
3566.46	263
3576.31	299
3586.14	257
3595.96	275
3605.77	253
3615.56	277
3625.34	278
3635.11	256
3644.86	257
3654.6	228
3661.9	261