Folder: GSAMain/data/SEM_Raman_Data/KZPd_180420-2

Note: README.md
<!--[![Build Status](https://travis-ci.com/nanoMFG/GSAMain.svg?token=N4nkhb241rGHotEqsu3q&branch=master)](https://travis-ci.com/nanoMFG/GSAMain) -->

[![Dev Status](https://img.shields.io/endpoint?url=https://salty-headland-67572.herokuapp.com/badges/phase?repo=GSAMain)](https://img.shields.io/endpoint?url=https://salty-headland-67572.herokuapp.com/badges/phase?repo=GSAMain)
### For Developers

#### Software Planning Documents

 * [gresq_SPD_1.1.0.md](https://github.com/nanoMFG/GSAMain/blob/planning_1.1.0/doc/SPD/gresq_SPD_1.1.0.md) \*
 * Draft SPD \*\* <br>


# Graphene-Synthesis-Analysis

<!-- One Paragraph of project description goes here. -->

## Getting Started

The latest production version of this application is hosted **on nanoHUB** for public use:<br/>
[https://nanohub.org/tools/gresq](https://nanohub.org/tools/gresq)

### Installing Locally
These instructions will get you a copy of the project up and running on your local machine for development and testing purposes. See deployment notes (below) for info on how to deploy the project on nanoHUB.

##### Cloning From GitHub:
The code in the repository uses submoded fro mthe GSAImage and GSARaman repos.  Be sure to use `--recurse-submodules` when cloning:
```
$ git clone --recurse-submodules git@github.com:nanoMFG/GSAMain.git
```
If already cloned:
```
$ git submodule init
$ git submodule update
```
See: <br/>
https://git-scm.com/book/en/v2/Git-Tools-Submodules<br/>
for more details on working with submodules.

##### Execute the dashboard GUI
```
$cd src
$python -m gresq
```

### Prerequisites
<!-- 
What things you need to install the software and how to install them -->

#### Using Conda

Install anaconda3 or miniconda3, then:<br/>

```
conda create --name gresq-3.6 python=3.6
conda env create -f <srcdir>/.conda/env_gresq_[osx|linux]_3.6.yml
conda activate env_gresq_[osx|linux]_3.6
```

#### Installing
<!--
A step by step series of examples that tell you have to get a development env running

Say what the step will be

```
Give the example
```

And repeat

```
until finished
```

End with an example of getting some data out of the system or using it for a little demo
-->
From the repository root:<br>
```
pip install ./gsaraman
pip install .
```
or for development:<br/>
```
pip install -e .
```

## Running the tests

<!-- Explain how to run the automated tests for this system -->
Additional prerequisites for testing are:  
```
pytest
factory_boy
```

After installing, run the following from the repository root:
```
pytest -v
```
Note, to avoid broken DB tests:  
```
pytest -v --ignore=test/database/models --ignore=test/util
```

### Break down into end to end tests

<!-- 
Explain what these tests test and why
```
Give an example
```
-->

### And coding style tests
<!-- 
Explain what these tests test and why 
```
Give an example
```
-->

## Deployment

<!-- Add additional notes about how to deploy this on a live system -->

Overview of deployment:
1. Code changes accumulate in development.
2

File: sample.txt
672.793	2051
686.818	1939
700.825	1754
714.807	1686
728.768	1566
742.707	1525
756.623	1552
770.519	1624
784.394	1554
798.246	1627
812.076	1653
825.885	1579
839.673	1544
853.44	1539
867.186	1473
880.909	1458
894.612	1470
908.293	1527
921.953	1761
935.592	3483
949.21	3837
962.805	3868
976.3822	3853
989.936	2557
1003.47	1703
1016.98	1364
1030.48	1116
1043.95	972
1057.4	971
1070.83	890
1084.24	911
1097.63	907
1111	835
1124.35	860
1137.67	836
1150.98	789
1164.27	809
1177.54	814
1190.78	769
1204.01	818
1217.22	776
1230.4	747
1243.57	759
1256.71	743
1269.84	739
1282.95	733
1296.03	726
1309.1	704
1322.15	777
1335.18	787
1348.18	874
1361.17	776
1374.14	737
1387.09	737
1400.02	738
1412.93	685
1425.82	723
1438.69	731
1451.54	680
1464.37	644
1477.19	623
1489.98	656
1502.75	681
1515.51	675
1528.25	663
1540.96	716
1553.66	862
1566.34	1516
1579	4682
1591.64	1798
1604.27	913
1616.871	721
1629.46	672
1642.02	615
1654.57	619
1667.1	585
1679.61	566
1692.1	539
1704.58	553
1717.03	523
1729.47	550
1741.89	513
1754.29	515
1766.67	512
1779.03	498
1791.379	490
1803.7	542
1816.01	501
1828.31	495
1840.58	518
1852.83	500
1865.07	570
1877.29	568
1889.49	489
1901.67	477
1913.84	495
1925.98	493
1938.11	467
1950.23	471
1962.32	493
1974.4	436
1986.46	513
1998.498	511
2010.52	547
2022.528	501
2034.52	487
2046.49	428
2058.44	439
2070.38	413
2082.3	454
2094.2	462
2106.09	405
2117.95	415
2129.804	416
2141.64	399
2153.46	397
2165.25	375
2177.04	368
2188.8	358
2200.551	403
2212.28	378
2224	390
2235.69	403
2247.38	389
2259.04	366
2270.69	408
2282.32	387
2293.93	397
2305.53	395
2317.11	394
2328.676	406
2340.23	405
2351.76	399
2363.27	385
2374.77	378
2386.25	401
2397.72	410
2409.17	441
2420.6	502
2432.02	506
2443.42	860
2454.8	1184
2466.17	862
2477.53	722
2488.86	620
2500.18	535
2511.49	507
2522.78	492
2534.05	492
2545.3	485
2556.54	511
2567.77	467
2578.978	492
2590.17	516
2601.35	574
2612.51	599
2623.658	707
2634.79	856
2645.9	1195
2657	2174
2668.09	6333
2679.15	20490
2690.21	23217
2701.24	9071
2712.27	3434
2723.27	1700
2734.26	1078
2745.24	813
2756.2	699
2767.15	589
2778.08	572
2788.991	513
2799.89	487
2810.77	451
2821.65	451
2832.5	423
2843.34	418
2854.16	420
2864.97	387
2875.77	371
2886.55	384
2897.311	361
2908.061	325
2918.8	341
2929.52	329
2940.22	338
2950.91	334
2961.59	333
2972.25	307
2982.9	304
2993.53	304
3004.14	290
3014.75	270
3025.34	293
3035.91	260
3046.47	291
3057.01	281
3067.55	274
3078.06	269
3088.563	272
3099.05	287
3109.52	265
3119.98	281
3130.427	269
3140.86	244
3151.27	255
3161.67	257
3172.06	297
3182.437	260
3192.8	271
3203.14	256
3213.47	248
3223.791	331
3234.1	625
3244.38	1692
3254.66	697
3264.92	319
3275.17	268
3285.41	251
3295.63	254
3305.83	252
3316.03	229
3326.21	232
3336.37	246
3346.52	221
3356.66	207
3366.79	231
3376.9	236
3386.99	220
3397.08	255
3407.15	214
3417.21	225
3427.25	246
3437.28	211
3447.3	234
3457.3	233
3467.29	198
3477.27	197
3487.23	192
3497.18	217
3507.12	218
3517.04	204
3526.95	220
3536.85	209
3546.73	212
3556.61	193
3566.46	204
3576.31	208
3586.14	212
3595.96	204
3605.77	187
3615.56	201
3625.34	185
3635.11	191
3644.86	181
3654.6	191
3661.9	196