Folder: GSAMain/data/SEM_Raman_Data/KZPd_170903-1

Note: README.md
<!--[![Build Status](https://travis-ci.com/nanoMFG/GSAMain.svg?token=N4nkhb241rGHotEqsu3q&branch=master)](https://travis-ci.com/nanoMFG/GSAMain) -->

[![Dev Status](https://img.shields.io/endpoint?url=https://salty-headland-67572.herokuapp.com/badges/phase?repo=GSAMain)](https://img.shields.io/endpoint?url=https://salty-headland-67572.herokuapp.com/badges/phase?repo=GSAMain)
### For Developers

#### Software Planning Documents

 * [gresq_SPD_1.1.0.md](https://github.com/nanoMFG/GSAMain/blob/planning_1.1.0/doc/SPD/gresq_SPD_1.1.0.md) \*
 * Draft SPD \*\* <br>


# Graphene-Synthesis-Analysis

<!-- One Paragraph of project description goes here. -->

## Getting Started

The latest production version of this application is hosted **on nanoHUB** for public use:<br/>
[https://nanohub.org/tools/gresq](https://nanohub.org/tools/gresq)

### Installing Locally
These instructions will get you a copy of the project up and running on your local machine for development and testing purposes. See deployment notes (below) for info on how to deploy the project on nanoHUB.

##### Cloning From GitHub:
The code in the repository uses submoded fro mthe GSAImage and GSARaman repos.  Be sure to use `--recurse-submodules` when cloning:
```
$ git clone --recurse-submodules git@github.com:nanoMFG/GSAMain.git
```
If already cloned:
```
$ git submodule init
$ git submodule update
```
See: <br/>
https://git-scm.com/book/en/v2/Git-Tools-Submodules<br/>
for more details on working with submodules.

##### Execute the dashboard GUI
```
$cd src
$python -m gresq
```

### Prerequisites
<!-- 
What things you need to install the software and how to install them -->

#### Using Conda

Install anaconda3 or miniconda3, then:<br/>

```
conda create --name gresq-3.6 python=3.6
conda env create -f <srcdir>/.conda/env_gresq_[osx|linux]_3.6.yml
conda activate env_gresq_[osx|linux]_3.6
```

#### Installing
<!--
A step by step series of examples that tell you have to get a development env running

Say what the step will be

```
Give the example
```

And repeat

```
until finished
```

End with an example of getting some data out of the system or using it for a little demo
-->
From the repository root:<br>
```
pip install ./gsaraman
pip install .
```
or for development:<br/>
```
pip install -e .
```

## Running the tests

<!-- Explain how to run the automated tests for this system -->
Additional prerequisites for testing are:  
```
pytest
factory_boy
```

After installing, run the following from the repository root:
```
pytest -v
```
Note, to avoid broken DB tests:  
```
pytest -v --ignore=test/database/models --ignore=test/util
```

### Break down into end to end tests

<!-- 
Explain what these tests test and why
```
Give an example
```
-->

### And coding style tests
<!-- 
Explain what these tests test and why 
```
Give an example
```
-->

## Deployment

<!-- Add additional notes about how to deploy this on a live system -->

Overview of deployment:
1. Code changes accumulate in development.
2

File: 20170924_Gr on SiO2_2_spec.txt
672.793	2669.16
686.818	1424.01
700.825	386.752
714.807	-450.346
728.768	-739.732
742.707	-751.772
756.623	-508.735
770.519	-163.687
784.394	17.3103
798.246	400.286
812.076	978.415
825.885	1208.91
839.673	765.041
853.44	486.15
867.186	635.617
880.909	691.844
894.612	1142.33
908.293	1436.54
921.953	2473.99
935.592	12436.233
949.21	23378.807
962.805	23045.26
976.3822	23498.188
989.936	19127.133
1003.47	6773.686
1016.98	3810.39
1030.48	1334.82
1043.95	90.5165
1057.4	0.0200699
1070.83	49.8468
1084.24	410.518
1097.63	653.511
1111	1241.3
1124.35	1526.35
1137.67	1797.08
1150.98	2102.9
1164.27	2344.19
1177.54	2689.33
1190.78	2594.64
1204.01	3348.44
1217.22	3428.03
1230.4	3899.66
1243.57	4865.58
1256.71	5699
1269.84	6384.11
1282.95	7958.08
1296.03	9429.06
1309.1	12139.154
1322.15	17549.473
1335.18	31513.086
1348.18	48909.035
1361.17	48038.375
1374.14	26528.094
1387.09	18330.191
1400.02	15355.642
1412.93	13868.396
1425.82	13343.393
1438.69	12741.536
1451.54	12580.743
1464.37	12833.92
1477.19	13448.909
1489.98	14068.588
1502.75	15083.79
1515.51	15914.387
1528.25	16687.172
1540.96	16804
1553.66	17522.643
1566.34	19561.924
1579	24947.635
1591.64	34406.547
1604.27	47053.484
1616.871	28172.191
1629.46	24828.459
1642.02	13246.063
1654.57	7839.78
1667.1	4907.37
1679.61	3214.62
1692.1	1884.28
1704.58	1047.127
1717.03	495.952
1729.47	301.529
1741.89	333.637
1754.29	169.062
1766.67	296.576
1779.03	269.99
1791.379	255.122
1803.7	180.73
1816.01	298.673
1828.31	420.755
1840.58	261.789
1852.83	443.6395
1865.07	283.12
1877.29	304.098
1889.49	357.433
1901.67	337.982
1913.84	531.651
1925.98	525.303
1938.11	638.849
1950.23	650.199
1962.32	677.27
1974.4	861.993
1986.46	849.297
1998.498	848.15
2010.52	773.496
2022.528	751.315
2034.52	777.589
2046.49	693.308
2058.44	683.472
2070.38	663.098
2082.3	870.212
2094.2	792.84
2106.09	746.032
2117.95	664.8385
2129.804	691.323
2141.64	612.558
2153.46	606.6264
2165.25	423.6181
2177.04	472.632
2188.8	331.781
2200.551	333.174
2212.28	575.942
2224	616.214
2235.69	686.131
2247.38	786.837
2259.04	566.491
2270.69	657.242
2282.32	454.266
2293.93	273.7291
2305.53	54.8059
2317.11	65.678
2328.676	-90.4626
2340.23	-179.441
2351.76	-138.05
2363.27	-239.102
2374.77	-153.388
2386.25	-47.72562
2397.72	23.0964
2409.17	-82.7094
2420.6	93.0544
2432.02	56.5909
2443.42	357.109
2454.8	805.821
2466.17	1200.92
2477.53	1016.61
2488.86	483.106
2500.18	168.594
2511.49	-98.7161
2522.78	54.3544
2534.05	144.013
2545.3	108.439
2556.54	322.815
2567.77	571.323
2578.978	595.142
2590.17	749.429
2601.35	1046.36
2612.51	1330.09
2623.658	2021.766
2634.79	3454.54
2645.9	5072.54
2657	8618.91
2668.09	14548.76
2679.15	22539.215
2690.21	31381.381
2701.24	32501.354
2712.27	23786.229
2723.27	14376.083
2734.26	8192.99
2745.24	4723.02
2756.2	2963.23
2767.15	1792.65
2778.08	1180.33
2788.991	973.286
2799.89	703.54
2810.77	558.093
2821.65	377.948
2832.5	625.084
2843.34	403.479
2854.16	600.102
2864.97	647.898
2875.77	806.829
2886.55	643.816
2897.311	1054.79
2908.061	1118.67
2918.8	1416.35
2929.52	1890.74
2940.22	2179.72
2950.91	2128.17
2961.59	2126.96
2972.25	1824.95
2982.9	1027.97
2993.53	892.894
3004.14	537.543
3014.75	520.7478
3025.34	273.329
3035.91	108.083
3046.47	161.849
3057.01	266.394
3067.55	20.5302
3078.06	210.028
3088.563	113.709
3099.05	241.317
3109.52	112.645
3119.98	34.4676
3130.427	154.557
3140.86	106.665
3151.27	-48.4216
3161.67	74.0589
3172.06	48.87896
3182.437	141.804
3192.8	215.59
3203.14	284.026
3213.47	368.883
3223.791	548.944
3234.1	924.9942
3244.38	1691.8
3254.66	2235.19
3264.92	1644.96
3275.17	822.908
3285.41	428.876
3295.63	249.674
3305.83	121.162
3316.03	175.195
3326.21	-8.35642
3336.37	-53.619
3346.52	63.3308
3356.66	133.388
3366.79	62.4992
3376.9	148.613
3386.99	157.719
3397.08	263.8
3407.15	296.885
3417.21	361.019
3427.25	393.272
3437.28	424.738
3447.3	260.548
3457.3	202.858
3467.29	318.857
3477.27	237.761
3487.23	225.8307
3497.18	68.3507
3507.12	104.652
3517.04	274.098
3526.95	94.0989
3536.85	181.1
3546.73	202.594
3556.61	231.119
3566.46	225.257
3576.31	231.64
3586.14	228.95
3595.96	203.922
3605.77	217.343
3615.56	94.0526
3625.34	-19.0433
3635.11	24.008
3644.86	-27.7785
3654.6	61.6925
3661.9	147.8963