Folder: GSAMain/data/SEM_Raman_Data/KZPd_170928-4

Note: README.md
<!--[![Build Status](https://travis-ci.com/nanoMFG/GSAMain.svg?token=N4nkhb241rGHotEqsu3q&branch=master)](https://travis-ci.com/nanoMFG/GSAMain) -->

[![Dev Status](https://img.shields.io/endpoint?url=https://salty-headland-67572.herokuapp.com/badges/phase?repo=GSAMain)](https://img.shields.io/endpoint?url=https://salty-headland-67572.herokuapp.com/badges/phase?repo=GSAMain)
### For Developers

#### Software Planning Documents

 * [gresq_SPD_1.1.0.md](https://github.com/nanoMFG/GSAMain/blob/planning_1.1.0/doc/SPD/gresq_SPD_1.1.0.md) \*
 * Draft SPD \*\* <br>


# Graphene-Synthesis-Analysis

<!-- One Paragraph of project description goes here. -->

## Getting Started

The latest production version of this application is hosted **on nanoHUB** for public use:<br/>
[https://nanohub.org/tools/gresq](https://nanohub.org/tools/gresq)

### Installing Locally
These instructions will get you a copy of the project up and running on your local machine for development and testing purposes. See deployment notes (below) for info on how to deploy the project on nanoHUB.

##### Cloning From GitHub:
The code in the repository uses submoded fro mthe GSAImage and GSARaman repos.  Be sure to use `--recurse-submodules` when cloning:
```
$ git clone --recurse-submodules git@github.com:nanoMFG/GSAMain.git
```
If already cloned:
```
$ git submodule init
$ git submodule update
```
See: <br/>
https://git-scm.com/book/en/v2/Git-Tools-Submodules<br/>
for more details on working with submodules.

##### Execute the dashboard GUI
```
$cd src
$python -m gresq
```

### Prerequisites
<!-- 
What things you need to install the software and how to install them -->

#### Using Conda

Install anaconda3 or miniconda3, then:<br/>

```
conda create --name gresq-3.6 python=3.6
conda env create -f <srcdir>/.conda/env_gresq_[osx|linux]_3.6.yml
conda activate env_gresq_[osx|linux]_3.6
```

#### Installing
<!--
A step by step series of examples that tell you have to get a development env running

Say what the step will be

```
Give the example
```

And repeat

```
until finished
```

End with an example of getting some data out of the system or using it for a little demo
-->
From the repository root:<br>
```
pip install ./gsaraman
pip install .
```
or for development:<br/>
```
pip install -e .
```

## Running the tests

<!-- Explain how to run the automated tests for this system -->
Additional prerequisites for testing are:  
```
pytest
factory_boy
```

After installing, run the following from the repository root:
```
pytest -v
```
Note, to avoid broken DB tests:  
```
pytest -v --ignore=test/database/models --ignore=test/util
```

### Break down into end to end tests

<!-- 
Explain what these tests test and why
```
Give an example
```
-->

### And coding style tests
<!-- 
Explain what these tests test and why 
```
Give an example
```
-->

## Deployment

<!-- Add additional notes about how to deploy this on a live system -->

Overview of deployment:
1. Code changes accumulate in development.
2

File: 20170926-4 on SiO2_1.txt
672.793	1139.25
686.818	910.167
700.825	392.149
714.807	120.443
728.768	69.3428
742.707	99.112
756.623	137.992
770.519	223.254
784.394	471.12
798.246	571.8
812.076	821.527
825.885	908.5047
839.673	708.933
853.44	648.002
867.186	770.893
880.909	739.771
894.612	860.82
908.293	925.182
921.953	1406.02
935.592	4546.47
949.21	8841.67
962.805	8711.76
976.3822	8801.86
989.936	7647.09
1003.47	2868.563
1016.98	1761.38
1030.48	778.646
1043.95	223.459
1057.4	55.9083
1070.83	32.075
1084.24	34.0505
1097.63	177.901
1111	183.703
1124.35	332.525
1137.67	303.43
1150.98	89.4773
1164.27	138.719
1177.54	71.2154
1190.78	138.007
1204.01	234.143
1217.22	72.6656
1230.4	201.614
1243.57	194.0246
1256.71	309.9267
1269.84	395.3587
1282.95	584.341
1296.03	831.904
1309.1	1400.07
1322.15	2978.86
1335.18	6285.3
1348.18	8329.39
1361.17	6292.17
1374.14	3604.63
1387.09	1835.8
1400.02	1165.68
1412.93	853.282
1425.82	634.617
1438.69	619.687
1451.54	668.5
1464.37	695.065
1477.19	820.377
1489.98	1126.44
1502.75	1316.26
1515.51	1389.84
1528.25	1750.17
1540.96	2639.25
1553.66	4999.09
1566.34	13127.683
1579	31035.023
1591.64	33723.109
1604.27	16147.942
1616.871	6617.51
1629.46	3453.823
1642.02	1741.87
1654.57	899.639
1667.1	617.137
1679.61	468.358
1692.1	251.293
1704.58	182.941
1717.03	133.299
1729.47	160.361
1741.89	178.124
1754.29	101.583
1766.67	115.733
1779.03	96.5724
1791.379	102.099
1803.7	75.3049
1816.01	162.192
1828.31	149.755
1840.58	183.99
1852.83	187.899
1865.07	117.475
1877.29	198.72
1889.49	158.631
1901.67	178.207
1913.84	119.448
1925.98	56.353
1938.11	116.922
1950.23	78.1564
1962.32	152.056
1974.4	107.623
1986.46	163.856
1998.498	145.76
2010.52	189.336
2022.528	177.585
2034.52	105.513
2046.49	117.121
2058.44	140.412
2070.38	84.39135
2082.3	104.064
2094.2	54.433
2106.09	105.505
2117.95	152.284
2129.804	92.7752
2141.64	60.98658
2153.46	76.9226
2165.25	47.5903
2177.04	34.9969
2188.8	44.14854
2200.551	57.054
2212.28	42.7196
2224	101.154
2235.69	84.3647
2247.38	133.361
2259.04	132.1494
2270.69	133.7408
2282.32	74.14283
2293.93	89.3648
2305.53	111.416
2317.11	97.3057
2328.676	33.0431
2340.23	47.6381
2351.76	133.1
2363.27	130.439
2374.77	151.664
2386.25	159.785
2397.72	162.8132
2409.17	224.757
2420.6	348.627
2432.02	444.433
2443.42	600.1842
2454.8	778.891
2466.17	877.564
2477.53	716.211
2488.86	697.843
2500.18	481.47
2511.49	503.099
2522.78	425.742
2534.05	369.4075
2545.3	425.104
2556.54	527.84
2567.77	465.625
2578.978	648.468
2590.17	779.376
2601.35	935.3573
2612.51	1194.42
2623.658	1767.57
2634.79	2627.82
2645.9	4095.18
2657	6455.64
2668.09	9615.22
2679.15	12744.926
2690.21	14317.761
2701.24	13687.731
2712.27	11370.843
2723.27	8295.1
2734.26	5465.51
2745.24	3467.073
2756.2	2137.8
2767.15	1364.68
2778.08	933.737
2788.991	736.96
2799.89	536.356
2810.77	424.927
2821.65	368.675
2832.5	367.601
2843.34	355.7063
2854.16	360.992
2864.97	319.459
2875.77	349.107
2886.55	353.936
2897.311	427.944
2908.061	463.131
2918.8	564.495
2929.52	607.035
2940.22	690.747
2950.91	578.63
2961.59	498.68
2972.25	389.895
2982.9	320.268
2993.53	228.798
3004.14	154.479
3014.75	78.3071
3025.34	108.276
3035.91	119.379
3046.47	47.6136
3057.01	-8.03021
3067.55	49.44265
3078.06	6.02376
3088.563	50.7084
3099.05	56.4864
3109.52	65.351
3119.98	49.2939
3130.427	24.3068
3140.86	85.3797
3151.27	98.5047
3161.67	115.672
3172.06	185.873
3182.437	171.0976
3192.8	241.334
3203.14	246.575
3213.47	282.808
3223.791	390.024
3234.1	569.212
3244.38	800.36
3254.66	770.4585
3264.92	524.497
3275.17	383.463
3285.41	163.346
3295.63	118.135
3305.83	77.8181
3316.03	53.3853
3326.21	29.82513
3336.37	-0.874609
3346.52	63.2773
3356.66	24.2675
3366.79	29.0864
3376.9	25.7223
3386.99	26.1664
3397.08	82.4064
3407.15	76.4331
3417.21	46.2365
3427.25	101.807
3437.28	71.1339
3447.3	55.2093
3457.3	75.024
3467.29	79.5697
3477.27	1.83758
3487.23	79.8212
3497.18	84.5121
3507.12	92.9041
3517.04	36.9903
3526.95	56.7659
3536.85	82.2249
3546.73	93.3629
3556.61	124.176
3566.46	59.6605
3576.31	60.8138
3586.14	64.634
3595.96	32.11982
3605.77	60.2707
3615.56	32.0871
3625.34	43.57
3635.11	30.7215
3644.86	7.54466
3654.6	28.04303
3661.9	1.70667