Folder: GSAMain/data/SEM_Raman_Data/KZPd_180423-2

Note: README.md
<!--[![Build Status](https://travis-ci.com/nanoMFG/GSAMain.svg?token=N4nkhb241rGHotEqsu3q&branch=master)](https://travis-ci.com/nanoMFG/GSAMain) -->

[![Dev Status](https://img.shields.io/endpoint?url=https://salty-headland-67572.herokuapp.com/badges/phase?repo=GSAMain)](https://img.shields.io/endpoint?url=https://salty-headland-67572.herokuapp.com/badges/phase?repo=GSAMain)
### For Developers

#### Software Planning Documents

 * [gresq_SPD_1.1.0.md](https://github.com/nanoMFG/GSAMain/blob/planning_1.1.0/doc/SPD/gresq_SPD_1.1.0.md) \*
 * Draft SPD \*\* <br>


# Graphene-Synthesis-Analysis

<!-- One Paragraph of project description goes here. -->

## Getting Started

The latest production version of this application is hosted **on nanoHUB** for public use:<br/>
[https://nanohub.org/tools/gresq](https://nanohub.org/tools/gresq)

### Installing Locally
These instructions will get you a copy of the project up and running on your local machine for development and testing purposes. See deployment notes (below) for info on how to deploy the project on nanoHUB.

##### Cloning From GitHub:
The code in the repository uses submoded fro mthe GSAImage and GSARaman repos.  Be sure to use `--recurse-submodules` when cloning:
```
$ git clone --recurse-submodules git@github.com:nanoMFG/GSAMain.git
```
If already cloned:
```
$ git submodule init
$ git submodule update
```
See: <br/>
https://git-scm.com/book/en/v2/Git-Tools-Submodules<br/>
for more details on working with submodules.

##### Execute the dashboard GUI
```
$cd src
$python -m gresq
```

### Prerequisites
<!-- 
What things you need to install the software and how to install them -->

#### Using Conda

Install anaconda3 or miniconda3, then:<br/>

```
conda create --name gresq-3.6 python=3.6
conda env create -f <srcdir>/.conda/env_gresq_[osx|linux]_3.6.yml
conda activate env_gresq_[osx|linux]_3.6
```

#### Installing
<!--
A step by step series of examples that tell you have to get a development env running

Say what the step will be

```
Give the example
```

And repeat

```
until finished
```

End with an example of getting some data out of the system or using it for a little demo
-->
From the repository root:<br>
```
pip install ./gsaraman
pip install .
```
or for development:<br/>
```
pip install -e .
```

## Running the tests

<!-- Explain how to run the automated tests for this system -->
Additional prerequisites for testing are:  
```
pytest
factory_boy
```

After installing, run the following from the repository root:
```
pytest -v
```
Note, to avoid broken DB tests:  
```
pytest -v --ignore=test/database/models --ignore=test/util
```

### Break down into end to end tests

<!-- 
Explain what these tests test and why
```
Give an example
```
-->

### And coding style tests
<!-- 
Explain what these tests test and why 
```
Give an example
```
-->

## Deployment

<!-- Add additional notes about how to deploy this on a live system -->

Overview of deployment:
1. Code changes accumulate in development.
2

File: sample.txt
672.793	2672
686.818	2421
700.825	2202
714.807	2070
728.768	1918
742.707	1991
756.623	1949
770.519	2001
784.394	1990
798.246	2087
812.076	2066
825.885	2000
839.673	1935
853.44	1859
867.186	1829
880.909	1902
894.612	1954
908.293	1927
921.953	2638
935.592	5142
949.21	4962
962.805	5135
976.3822	4937
989.936	2888
1003.47	2127
1016.98	1629
1030.48	1347
1043.95	1255
1057.4	1173
1070.83	1122
1084.24	1152
1097.63	1158
1111	1114
1124.35	1083
1137.67	1032
1150.98	1057
1164.27	1042
1177.54	1037
1190.78	991
1204.01	971
1217.22	1006
1230.4	946
1243.57	985
1256.71	954
1269.84	955
1282.95	943
1296.03	966
1309.1	890
1322.15	957
1335.18	988
1348.18	1049
1361.17	952
1374.14	925
1387.09	871
1400.02	916
1412.93	897
1425.82	896
1438.69	864
1451.54	849
1464.37	856
1477.19	863
1489.98	795
1502.75	825
1515.51	936
1528.25	892
1540.96	988
1553.66	1383
1566.34	3627
1579	5949
1591.64	1690
1604.27	1034
1616.871	927
1629.46	804
1642.02	752
1654.57	747
1667.1	722
1679.61	680
1692.1	677
1704.58	687
1717.03	678
1729.47	651
1741.89	655
1754.29	633
1766.67	643
1779.03	615
1791.379	685
1803.7	671
1816.01	658
1828.31	635
1840.58	648
1852.83	712
1865.07	788
1877.29	702
1889.49	642
1901.67	590
1913.84	572
1925.98	615
1938.11	616
1950.23	569
1962.32	596
1974.4	638
1986.46	683
1998.498	668
2010.52	648
2022.528	618
2034.52	591
2046.49	560
2058.44	574
2070.38	557
2082.3	526
2094.2	521
2106.09	531
2117.95	535
2129.804	523
2141.64	479
2153.46	485
2165.25	482
2177.04	473
2188.8	484
2200.551	499
2212.28	578
2224	536
2235.69	494
2247.38	531
2259.04	503
2270.69	494
2282.32	503
2293.93	480
2305.53	486
2317.11	486
2328.676	513
2340.23	522
2351.76	502
2363.27	528
2374.77	531
2386.25	479
2397.72	536
2409.17	587
2420.6	622
2432.02	978
2443.42	1629
2454.8	1400
2466.17	1109
2477.53	929
2488.86	781
2500.18	666
2511.49	674
2522.78	646
2534.05	658
2545.3	661
2556.54	654
2567.77	674
2578.978	684
2590.17	741
2601.35	829
2612.51	880
2623.658	1090
2634.79	1596
2645.9	2849
2657	6751
2668.09	18831
2679.15	33710
2690.21	19787
2701.24	7349
2712.27	3347
2723.27	2030
2734.26	1397
2745.24	1041
2756.2	911
2767.15	816
2778.08	730
2788.991	682
2799.89	657
2810.77	564
2821.65	612
2832.5	599
2843.34	591
2854.16	534
2864.97	542
2875.77	485
2886.55	518
2897.311	461
2908.061	440
2918.8	448
2929.52	443
2940.22	450
2950.91	419
2961.59	422
2972.25	396
2982.9	361
2993.53	426
3004.14	372
3014.75	378
3025.34	404
3035.91	386
3046.47	388
3057.01	397
3067.55	373
3078.06	390
3088.563	365
3099.05	369
3109.52	360
3119.98	345
3130.427	358
3140.86	381
3151.27	332
3161.67	379
3172.06	396
3182.437	342
3192.8	365
3203.14	347
3213.47	412
3223.791	655
3234.1	1536
3244.38	1625
3254.66	525
3264.92	366
3275.17	341
3285.41	344
3295.63	329
3305.83	338
3316.03	304
3326.21	323
3336.37	331
3346.52	296
3356.66	286
3366.79	285
3376.9	306
3386.99	289
3397.08	287
3407.15	308
3417.21	283
3427.25	298
3437.28	311
3447.3	295
3457.3	287
3467.29	301
3477.27	282
3487.23	271
3497.18	296
3507.12	297
3517.04	276
3526.95	276
3536.85	271
3546.73	288
3556.61	290
3566.46	277
3576.31	286
3586.14	284
3595.96	268
3605.77	259
3615.56	267
3625.34	261
3635.11	252
3644.86	246
3654.6	248
3661.9	236